time,seconds_elapsed,z,y,x
1679068247354694100,0.155694091796875,-0.1404123306274414,0.00003547011874616146,-0.0018799155950546265
1679068247375690000,0.17668994140625,-0.1404123306274414,0.0000354694202542305,-0.0018798857927322388
1679068247395458300,0.196458251953125,-0.1404123306274414,0.00003547011874616146,-0.0018799155950546265
1679068247415356400,0.2163564453125,-0.10215473175048828,0.0003677681088447571,-0.0012494325637817383
1679068247435497200,0.236497314453125,-0.10215473175048828,0.002761976793408394,0.005933143198490143
1679068247455456300,0.256456298828125,-0.11135673522949219,0.0003849789500236511,-0.0016770213842391968
1679068247476452400,0.277452392578125,-0.09946823120117188,0.007654927670955658,-0.01339411735534668
1679068247496471300,0.29747119140625,-0.09707450866699219,0.0004723258316516876,0.012942105531692505
1679068247516388600,0.317388671875,-0.10186290740966797,0.038779549300670624,-0.01339411735534668
1679068247536407600,0.337407470703125,-0.10186290740966797,0.0004723258316516876,-0.0014231055974960327
1679068247556340200,0.35734033203125,-0.10664081573486328,0.0005009584128856659,-0.0015081465244293213
1679068247576359200,0.377359130859375,-0.08477210998535156,0.0006001032888889313,-0.0015906542539596558
1679068247596379100,0.397379150390625,-0.0995016098022461,0.0004907883703708649,-0.001355394721031189
1679068247616337200,0.417337158203125,-0.10907840728759766,0.0028849877417087555,0.005827203392982483
1679068247636357000,0.437357177734375,-0.1067361831665039,0.0002544187009334564,-0.001476883888244629
1679068247656376300,0.457376220703125,-0.09955310821533203,0.0002544224262237549,0.0033115148544311523
1679068247676335000,0.477335205078125,-0.09018707275390625,0.00034632906317710876,-0.001152731478214264
1679068247696354300,0.497354248046875,-0.09478759765625,0.0005779862403869629,-0.0014842748641967773
1679068247717350100,0.51835009765625,-0.10454559326171875,0.0004917196929454803,-0.0014856532216072083
1679068247737370000,0.5383701171875,-0.10194778442382812,0.0003699176013469696,-0.001423180103302002
1679068247757328100,0.558328125,-0.09021663665771484,0.00015063956379890442,-0.0010880306363105774
1679068247777347300,0.578347412109375,-0.1042184829711914,0.00047287717461586,-0.0015533864498138428
1679068247797367300,0.5983671875,-0.09481143951416016,0.00039773061871528625,-0.001317739486694336
1679068247817325300,0.6183251953125,-0.08044624328613281,0.005186144262552261,-0.0037119388580322266
1679068247837345300,0.63834521484375,-0.10438919067382812,0.005186140537261963,0.005864888429641724
1679068247857364200,0.6583642578125,-0.10678386688232422,-0.0043906718492507935,0.0010764896869659424
1679068247878360300,0.6793603515625,-0.10199546813964844,0.005186136811971664,0.0010764896869659424
1679068247899356200,0.700356201171875,-0.12114906311035156,0.0003977380692958832,-0.0013177543878555298
1679068247919376100,0.720376220703125,-0.09481239318847656,-0.004390683025121689,0.003470674157142639
1679068247939334100,0.740334228515625,-0.11867523193359375,0.00020069628953933716,-0.0018926411867141724
1679068247960330200,0.761330322265625,-0.09239768981933594,0.00031304731965065,-0.0013068169355392456
1679068247981326000,0.782326171875,-0.10703182220458984,0.0002232734113931656,-0.0012747123837471008
1679068248001346300,0.80234619140625,-0.08264446258544922,0.00039599835872650146,-0.001190677285194397
1679068248021365200,0.822365234375,-0.09963607788085938,0.0002895928919315338,-0.0010473579168319702
1679068248042361000,0.843361083984375,-0.13098907470703125,-0.00002476666122674942,-0.0015274956822395325
1679068248063357200,0.864357177734375,-0.08724689483642578,0.0004700981080532074,-0.0014109015464782715
1679068248083377200,0.884377197265625,-0.09966754913330078,0.0003153197467327118,-0.0012962967157363892
1679068248103335200,0.904335205078125,-0.11163902282714844,-0.0068672820925712585,-0.0012962967157363892
1679068248124331300,0.925331298828125,-0.0968179702758789,0.00037872418761253357,-0.0014704465866088867
1679068248145327000,0.9463271484375,-0.10418128967285156,0.00043625757098197937,-0.0017138570547103882
1679068248165347300,0.966347412109375,-0.10178756713867188,-0.0019579455256462097,-0.008896470069885254
1679068248185369000,0.986369140625,-0.11386394500732422,0.0005925595760345459,-0.0015353411436080933
1679068248205266200,1.00626611328125,-0.0945272445678711,0.0003229789435863495,-0.0014719963073730469
1679068248225347300,1.026347412109375,-0.09952449798583984,0.0004435516893863678,-0.001371920108795166
1679068248247381200,1.04838134765625,-0.09952449798583984,0.0004435442388057709,0.005810678005218506
1679068248267339300,1.06833935546875,-0.10207939147949219,0.0004534609615802765,-0.0011359229683876038
1679068248287358200,1.088358154296875,-0.10425376892089844,0.00044035911560058594,-0.0014712810516357422
1679068248307378200,1.108378173828125,-0.10201358795166016,0.0004261620342731476,-0.0014694780111312866
1679068248327336200,1.128336181640625,-0.10440826416015625,0.0076087601482868195,0.0033189505338668823
1679068248347356200,1.148356201171875,-0.10680198669433594,0.00042615458369255066,0.000924721360206604
1679068248368352300,1.169352294921875,-0.11398506164550781,0.04087654501199722,-0.0015070587396621704
1679068248388371200,1.18937109375,-0.10680294036865234,-0.007007479667663574,0.005675554275512695
1679068248409367300,1.2103671875,-0.0924386978149414,0.01913173496723175,0.0008278340101242065
1679068248429326000,1.230326171875,-0.10440826416015625,-0.004810284823179245,0.015193045139312744
1679068248449345300,1.25034521484375,-0.08525562286376953,0.0071607232093811035,0.008010447025299072
1679068248469365200,1.270365234375,-0.09962081909179688,-0.0024160854518413544,-0.001566365361213684
1679068248490361000,1.291361083984375,-0.11398601531982422,0.04513673856854439,-0.0016499757766723633
1679068248511357200,1.312357177734375,-0.0924367904663086,0.0018003247678279877,0.017331168055534363
1679068248533330200,1.334330078125,-0.10680294036865234,0.008777070790529251,-0.018597349524497986
1679068248553349000,1.35434912109375,-0.092437744140625,-0.0007997304201126099,0.012527257204055786
1679068248574345200,1.37534521484375,-0.09962081909179688,0.008777070790529251,-0.004232138395309448
1679068248594365200,1.395365234375,-0.10919666290283203,0.0015944652259349823,0.0029504746198654175
1679068248616337200,1.417337158203125,-0.10201549530029297,-0.0031939372420310974,-0.0018379390239715576
1679068248636357000,1.437357177734375,-0.10919666290283203,0.013565482571721077,0.005344673991203308
1679068248656376300,1.457376220703125,-0.09483146667480469,0.015959691256284714,0.005344659090042114
1679068248676335000,1.477335205078125,-0.10440731048583984,0.006221827119588852,0.010004162788391113
1679068248696354300,1.497354248046875,-0.09722518920898438,0.003827642649412155,0.005215734243392944
1679068248716373200,1.517373291015625,-0.09961891174316406,0.01579863950610161,-0.006755277514457703
1679068248736332300,1.537332275390625,-0.10919570922851562,0.0014334283769130707,0.01000414788722992
1679068248756351200,1.557351318359375,-0.10201263427734375,0.008451510220766068,0.009842514991760254
1679068248776371200,1.57737109375,-0.087646484375,0.008299898356199265,0.004915133118629456
1679068248796146200,1.597146240234375,-0.09722328186035156,0.005905698984861374,0.007309332489967346
1679068248816349200,1.61734912109375,-0.08764362335205078,-0.0037523284554481506,0.02142299711704254
1679068248837345300,1.63834521484375,-0.0804595947265625,-0.0037523284554481506,0.002269357442855835
1679068248857364200,1.6583642578125,-0.08045673370361328,0.0033871494233608246,0.011619821190834045
1679068248877323300,1.6783232421875,-0.08524322509765625,0.029513541609048843,0.01138441264629364
1679068248897342200,1.69834228515625,-0.0972127914428711,-0.00412394106388092,0.008766040205955505
1679068248917301200,1.71830126953125,-0.09242057800292969,-0.004180312156677246,0.015690580010414124
1679068248937381000,1.738381103515625,-0.0900259017944336,0.010184910148382187,-0.008251473307609558
1679068248957340200,1.758340087890625,-0.09481430053710938,-0.004180308431386948,-0.01543404906988144
1679068248977359000,1.778359130859375,-0.12354469299316406,0.010184910148382187,-0.00585724413394928
1679068248997379300,1.79837939453125,-0.09720897674560547,-0.006574500352144241,0.010902166366577148
1679068249018192100,1.819192138671875,-0.09242057800292969,-0.0017861053347587585,0.015690580010414124
1679068249038333200,1.839333251953125,-0.08523750305175781,-0.004180319607257843,0.010902166366577148
1679068249058353200,1.859353271484375,-0.0876321792602539,-0.001786109060049057,-0.0034630298614501953
1679068249078372000,1.8793720703125,-0.0900259017944336,-0.006574511528015137,0.015690594911575317
1679068249098331100,1.8993310546875,-0.0804443359375,-0.0017267800867557526,0.02973257005214691
1679068249118350000,1.91935009765625,-0.09720420837402344,-0.001726776361465454,-0.0061804503202438354
1679068249139346200,1.94034619140625,-0.09002113342285156,0.005455818027257919,0.003396362066268921
1679068249159366100,1.9603662109375,-0.09959793090820312,0.022215228527784348,0.003396362066268921
1679068249179265300,1.980265380859375,-0.11396312713623047,-0.004120990633964539,0.008184775710105896
1679068249199346200,2.00034619140625,-0.07086753845214844,0.022215228527784348,-0.003786236047744751
1679068249219365000,2.020365234375,-0.10917472839355469,-0.006515182554721832,0.0033963918685913086
1679068249239324200,2.04032421875,-0.12114524841308594,0.01725918799638748,0.010426074266433716
1679068249260381200,2.061381103515625,-0.09241485595703125,0.0052881911396980286,-0.003939151763916016
1679068249280339200,2.081339111328125,-0.09480857849121094,0.005288194864988327,0.015214473009109497
1679068249300359200,2.101359130859375,-0.0780496597290039,0.012470794841647148,-0.008727550506591797
1679068249321172200,2.122172119140625,-0.09720325469970703,0.0004997886717319489,-0.011121764779090881
1679068249342351000,2.14335107421875,-0.10199165344238281,-0.0018944144248962402,-0.006333351135253906
1679068249362370300,2.163370361328125,-0.09720325469970703,0.0004997774958610535,-0.006333336234092712
1679068249382329000,2.1833291015625,-0.09720325469970703,-0.0018944069743156433,0.020002856850624084
1679068249402348300,2.203348388671875,-0.08523178100585938,-0.0018944144248962402,0.012820258736610413
1679068249422368300,2.2233681640625,-0.0804433822631836,0.0004997849464416504,0.005637660622596741
1679068249442326300,2.243326171875,-0.08283805847167969,-0.004288624972105026,0.010426059365272522
1679068249462346200,2.26334619140625,-0.09959697723388672,0.02683599293231964,-0.001544952392578125
1679068249482365200,2.283365234375,-0.1043853759765625,0.0004997663199901581,0.00324346125125885
1679068249502324200,2.30332421875,-0.08762645721435547,0.00768236443400383,0.010426074266433716
1679068249522343200,2.32334326171875,-0.12114524841308594,0.007682375609874725,-0.003939151763916016
1679068249542302200,2.34330224609375,-0.09002017974853516,0.010076578706502914,0.0008492767810821533
1679068249562382000,2.363382080078125,-0.08762645721435547,0.010076578706502914,0.008031889796257019
1679068249582341000,2.383341064453125,-0.0995941162109375,-0.006761234253644943,0.024552807211875916
1679068249603337200,2.404337158203125,-0.08522701263427734,0.017018593847751617,0.007561907172203064
1679068249623356200,2.424356201171875,-0.09001445770263672,-0.002135012298822403,-0.016380108892917633
1679068249643376000,2.444376220703125,-0.10437965393066406,-0.0021350160241127014,0.009956106543540955
1679068249663334100,2.464334228515625,-0.08762168884277344,-0.006923418492078781,0.012350305914878845
1679068249683354000,2.48435400390625,-0.0948038101196289,0.00265338271856308,-0.011591687798500061
1679068249704350200,2.50535009765625,-0.09001541137695312,0.00025917962193489075,0.017138734459877014
1679068249724308200,2.52530810546875,-0.10677433013916016,-0.004529222846031189,0.0027735233306884766
1679068249745365200,2.546365234375,-0.0948038101196289,0.0050475746393203735,-0.006803274154663086
1679068249765324300,2.56632421875,-0.09959125518798828,0.0050475746393203735,0.012350335717201233
1679068249785343200,2.58634326171875,-0.09240913391113281,0.014624375849962234,0.0027735382318496704
1679068249805363200,2.60636328125,-0.0948038101196289,-0.006923440843820572,0.009956151247024536
1679068249825382100,2.626382080078125,-0.10438060760498047,-0.0021350309252738953,0.0027735233306884766
1679068249845340200,2.646340087890625,-0.10916900634765625,0.0050475746393203735,-0.0020148754119873047
1679068249865360100,2.666360107421875,-0.0948038101196289,0.012230178341269493,-0.009197473526000977
1679068249885379300,2.68637939453125,-0.0948038101196289,-0.0021350346505641937,0.0027735382318496704
1679068249905338000,2.706338134765625,-0.10438060760498047,-0.0069234371185302734,0.012350335717201233
1679068249925357300,2.726357421875,-0.097198486328125,0.007441774010658264,-0.004409074783325195
1679068249945377300,2.746377197265625,-0.0948038101196289,0.002653367817401886,0.0027735382318496704
1679068249965335300,2.766335205078125,-0.10438060760498047,0.009835977107286453,-0.009197473526000977
1679068249986331100,2.7873310546875,-0.12832260131835938,0.007441766560077667,0.0075619518756866455
1679068250006351000,2.80735107421875,-0.08522891998291016,0.01446470245718956,-0.03537110984325409
1679068250026370300,2.827370361328125,-0.10917472839355469,0.0261661596596241,-0.013633184134960175
1679068250047366100,2.8483662109375,-0.10199260711669922,-0.002564266324043274,0.0007320493459701538
1679068250067325200,2.8683251953125,-0.09720420837402344,-0.007352672517299652,0.019885659217834473
1679068250087344000,2.88834423828125,-0.106781005859375,0.004618339240550995,-0.008844763040542603
1679068250107364000,2.908364013671875,-0.10199260711669922,-0.007352661341428757,0.0031262487173080444
1679068250127322000,2.928322021484375,-0.09480953216552734,0.004618346691131592,0.010308846831321716
1679068250147342000,2.948342041015625,-0.09959793090820312,0.002224136143922806,-0.004056364297866821
1679068250167361300,2.968361328125,-0.08762741088867188,0.004618339240550995,0.005520448088645935
1679068250187322000,2.988322021484375,-0.10438346862792969,-0.007343318313360214,0.026841536164283752
1679068250207342000,3.008342041015625,-0.11396026611328125,0.011810293421149254,0.002899542450904846
1679068250227361300,3.028361328125,-0.10438156127929688,0.01170581765472889,0.007514134049415588
1679068250247381200,3.04838134765625,-0.11635303497314453,0.011705821380019188,-0.009245291352272034
1679068250268377000,3.069377197265625,-0.11156558990478516,0.023426754400134087,-0.009262308478355408
1679068250288335000,3.089335205078125,-0.1019887924194336,0.0018789470195770264,0.014679715037345886
1679068250309331200,3.110331298828125,-0.10917091369628906,0.02078409120440483,0.00022827088832855225
1679068250329351200,3.13035107421875,-0.10677623748779297,0.0014512129127979279,0.004920065402984619
1679068250349370000,3.1503701171875,-0.11635398864746094,0.015591338276863098,-0.007090017199516296
1679068250369328000,3.170328125,-0.1259307861328125,0.00840873271226883,-0.007090017199516296
1679068250389348000,3.19034814453125,-0.11396026611328125,0.010585462674498558,-0.011811524629592896
1679068250409367300,3.2103671875,-0.10677814483642578,0.005797058343887329,-0.007023125886917114
1679068250429326000,3.230326171875,-0.09720420837402344,0.01277664303779602,-0.009313344955444336
1679068250449345300,3.25034521484375,-0.1043863296508789,-0.003982767462730408,0.012234464287757874
1679068250469365200,3.270365234375,-0.11875152587890625,0.005594037473201752,0.0002634674310684204
1679068250489262000,3.290261962890625,-0.1043863296508789,0.003199838101863861,0.0002634674310684204
1679068250510380300,3.31138037109375,-0.1043863296508789,-0.003982767462730408,0.007446065545082092
1679068250530339300,3.33133935546875,-0.09959793090820312,-0.008771169930696487,0.014628678560256958
1679068250550358300,3.351358154296875,-0.11635780334472656,0.03193025663495064,-0.002130746841430664
1679068250570378200,3.371378173828125,-0.11396312713623047,0.000805635005235672,0.009840264916419983
1679068250590336300,3.391336181640625,-0.106781005859375,0.019759953022003174,-0.011746719479560852
1679068250610356200,3.411356201171875,-0.1043863296508789,0.0030005425214767456,0.00022429227828979492
1679068250631352300,3.432352294921875,-0.10917377471923828,0.012379564344882965,0.012081772089004517
1679068250651371300,3.452371337890625,-0.1331157684326172,0.02169998548924923,-0.0047364383935928345
1679068250671147300,3.472147216796875,-0.11396408081054688,0.026134546846151352,-0.004761040210723877
1679068250691349200,3.492349365234375,-0.13072586059570312,0.028112610802054405,-0.011899054050445557
1679068250711369200,3.512369140625,-0.1115732192993164,0.006237581372261047,0.009613513946533203
1679068250731266300,3.532266357421875,-0.12593936920166016,0.024997863918542862,-0.00237920880317688
1679068250752323300,3.5533232421875,-0.08045101165771484,-0.006364010274410248,-0.01666390150785446
1679068250772343300,3.57334326171875,-0.10439586639404297,0.010170157998800278,-0.014136351644992828
1679068250792301300,3.59330126953125,-0.10679340362548828,0.017085865139961243,-0.011582493782043457
1679068250812382200,3.61338232421875,-0.09721946716308594,0.007287194952368736,-0.006654292345046997
1679068250832340200,3.63334033203125,-0.1115865707397461,0.01422840915620327,-0.0017637163400650024
1679068250852359200,3.653359130859375,-0.09243297576904297,-0.004925206303596497,0.024572506546974182
1679068250873355300,3.674355224609375,-0.09722137451171875,-0.012107808142900467,0.010207295417785645
1679068250894352100,3.69535205078125,-0.1115865707397461,0.02141101285815239,-0.011340513825416565
1679068250914371300,3.715371337890625,-0.1115865707397461,-0.0001368001103401184,0.0030246973037719727
1679068250934329000,3.7353291015625,-0.11637496948242188,0.01662261039018631,-0.004157915711402893
1679068250954349300,3.755349365234375,-0.0852499008178711,0.009440004825592041,-0.013734720647335052
1679068250974368300,3.7753681640625,-0.11877155303955078,0.025918884202837944,-0.008859872817993164
1679068250997239800,3.79823974609375,-0.10680198669433594,0.004137098789215088,-0.006369680166244507
1679068251034808600,3.83580859375,-0.12117385864257812,0.00833585113286972,-0.0060551464557647705
1679068251054588200,3.855588134765625,-0.11399078369140625,0.0035474449396133423,0.013098463416099548
1679068251074608000,3.875608154296875,-0.11638641357421875,0.02478780411183834,0.008260473608970642
1679068251094567000,3.89556689453125,-0.1259632110595703,0.014903973788022995,0.0010261088609695435
1679068251114526000,3.91552587890625,-0.10920333862304688,-0.0018554367125034332,-0.010944902896881104
1679068251134545000,3.935544921875,-0.12596511840820312,0.02418219856917858,-0.006113186478614807
1679068251154564900,3.95556494140625,-0.11399650573730469,0.009550988674163818,-0.022712290287017822
1679068251174526000,3.97552587890625,-0.12597274780273438,0.014066733419895172,-0.020091503858566284
1679068251194545000,3.995544921875,-0.11400413513183594,0.03044482134282589,-0.007918030023574829
1679068251214564900,4.01556494140625,-0.12119102478027344,0.010953618213534355,-0.002976521849632263
1679068251234583800,4.035583740234375,-0.12119388580322266,0.01541685126721859,-0.007622197270393372
1679068251254542800,4.05554296875,-0.12359046936035156,0.03411831334233284,-0.0027211159467697144
1679068251274561800,4.075561767578125,-0.12119865417480469,0.0074302442371845245,0.004502132534980774
1679068251296534800,4.09753466796875,-0.12838268280029297,0.01664545387029648,-0.009782686829566956
1679068251317531000,4.11853076171875,-0.13556766510009766,0.009155018255114555,-0.00015939772129058838
1679068251337549800,4.1385498046875,-0.11641407012939453,-0.007604394108057022,0.004629015922546387
1679068251358546000,4.1595458984375,-0.13317298889160156,0.025634609162807465,0.004586338996887207
1679068251378505000,4.1795048828125,-0.11162471771240234,0.039549242705106735,0.023551195859909058
1679068251398524000,4.19952392578125,-0.1212005615234375,0.01281961239874363,-0.005289122462272644
1679068251420557800,4.221557861328125,-0.11162471771240234,0.012464134022593498,-0.007722645998001099
1679068251440515800,4.241515869140625,-0.11880683898925781,0.012140806764364243,0.011323735117912292
1679068251460535800,4.261535888671875,-0.11162567138671875,0.004705457016825676,-0.012625761330127716
1679068251480555000,4.281554931640625,-0.12838459014892578,0.016392406076192856,-0.0006666481494903564
1679068251501550800,4.30255078125,-0.11641502380371094,0.03511427715420723,0.0064558833837509155
1679068251522547000,4.323546875,-0.12359619140625,0.01793576218187809,0.011119723320007324
1679068251543542800,4.344542724609375,-0.11641502380371094,0.01277188304811716,-0.010458990931510925
1679068251563563000,4.36456298828125,-0.1259937286376953,0.019570564851164818,-0.010425448417663574
1679068251583582000,4.38458203125,-0.12120532989501953,0.0191853828728199,0.0063082873821258545
1679068251604577800,4.405577880859375,-0.11402225494384766,0.02116544544696808,0.003861069679260254
1679068251625574000,4.426573974609375,-0.12120532989501953,-0.0006619486957788467,0.0037909001111984253
1679068251645533000,4.446532958984375,-0.1044454574584961,-0.0006619486957788467,0.006185099482536316
1679068251665552000,4.4665517578125,-0.1307821273803711,0.011309060268104076,-0.005785912275314331
1679068251685571800,4.48657177734375,-0.11402225494384766,0.0017322544008493423,0.008579298853874207
1679068251705529900,4.50652978515625,-0.1044454574584961,-0.0006619486957788467,-0.0033917129039764404
1679068251725549800,4.5265498046875,-0.128387451171875,0.008914858102798462,-0.0129685178399086
1679068251745569000,4.546569091796875,-0.10923385620117188,-0.0030561499297618866,0.010973498225212097
1679068251765527800,4.56652783203125,-0.13317584991455078,-0.007844554260373116,0.0013967007398605347
1679068251785364000,4.586364013671875,-0.1044454574584961,-0.0054503511637449265,-0.0033917129039764404
1679068251805567000,4.60656689453125,-0.12359905242919922,0.01370326243340969,0.0013967007398605347
1679068251825586000,4.6265859375,-0.12120532989501953,0.01609746366739273,0.013367697596549988
1679068251845544000,4.6465439453125,-0.1283855438232422,0.025418121367692947,0.0179462730884552
1679068251865564000,4.66656396484375,-0.11402034759521484,-0.020071711391210556,-0.015572555363178253
1679068251885582800,4.686582763671875,-0.12120342254638672,0.01823551580309868,0.0035810619592666626
1679068251905542000,4.7065419921875,-0.11641502380371094,0.0038703065365552902,-0.008389949798583984
1679068251925560800,4.726560791015625,-0.11401939392089844,0.025176577270030975,0.00830097496509552
1679068251945580800,4.746580810546875,-0.11401939392089844,-0.020313255488872528,-0.008458435535430908
1679068251965538800,4.766538818359375,-0.1259908676147461,0.015599770471453667,0.00830097496509552
1679068251985558800,4.786558837890625,-0.13077926635742188,-0.0011596418917179108,-0.008458435535430908
1679068252005578000,4.806577880859375,-0.10204887390136719,-0.015524853020906448,-0.010852634906768799
1679068252025475800,4.826475830078125,-0.12120246887207031,0.010811367072165012,0.00830097496509552
1679068252045556000,4.846555908203125,-0.11641407012939453,-0.0059480443596839905,-0.0012758374214172363
1679068252065515000,4.866514892578125,-0.12359619140625,0.013205569237470627,-0.0012758374214172363
1679068252086571800,4.88757177734375,-0.10923099517822266,0.017993971705436707,-0.0012758374214172363
1679068252106529800,4.90752978515625,-0.1475381851196289,-0.0011596418917179108,0.0035125762224197388
1679068252126550000,4.927550048828125,-0.13317298889160156,0.006022963672876358,-0.0012758374214172363
1679068252146569000,4.94756884765625,-0.11641407012939453,-0.0059480443596839905,-0.0012758374214172363
1679068252166501600,4.967501708984375,-0.11880779266357422,0.020388174802064896,-0.010852634906768799
1679068252186524700,4.987524658203125,-0.11401939392089844,-0.01073644682765007,0.005906775593757629
1679068252206543600,5.007543701171875,-0.12120246887207031,0.006022963672876358,-0.013246841728687286
1679068252227539700,5.028539794921875,-0.12838459014892578,0.013205569237470627,0.0035125762224197388
1679068252247526700,5.048526611328125,-0.12359619140625,0.010811367072165012,0.0011183768510818481
1679068252267423700,5.068423828125,-0.11401939392089844,-0.01313064992427826,-0.008458435535430908
1679068252287503600,5.088503662109375,-0.1283855438232422,0.03452858328819275,0.008266806602478027
1679068252307523600,5.108523681640625,-0.11880874633789062,0.008192365989089012,-0.0037042051553726196
1679068252327481600,5.128481689453125,-0.13556861877441406,0.010586568154394627,-0.0037042051553726196
1679068252347501600,5.14850146484375,-0.10923194885253906,-0.015749651938676834,-0.008492603898048401
1679068252367520800,5.168520751953125,-0.11880874633789062,-0.008567046374082565,0.008266806602478027
1679068252387479600,5.1884794921875,-0.11641502380371094,0.03213438391685486,0.005872607231140137
1679068252407498800,5.208498779296875,-0.10444355010986328,-0.008567046374082565,-0.0037042051553726196
1679068252427518700,5.228518798828125,-0.11880779266357422,0.02950982004404068,0.015325844287872314
1679068252447476700,5.248476806640625,-0.11162376403808594,0.014883996918797493,0.0008546113967895508
1679068252467496700,5.26849658203125,-0.12359428405761719,0.00986077543348074,0.005528077483177185
1679068252487515600,5.288515625,-0.0972585678100586,-0.011687038466334343,-0.018413938581943512
1679068252507474700,5.308474609375,-0.10683536529541016,-0.0021102335304021835,0.0007396787405014038
1679068252527493600,5.32849365234375,-0.10922908782958984,0.017043380066752434,0.012710675597190857
1679068252547513600,5.348513671875,-0.13795948028564453,0.014649178832769394,0.0031338781118392944
1679068252567471600,5.3684716796875,-0.11401748657226562,0.012254977598786354,-0.006442934274673462
1679068252587490600,5.388490478515625,-0.12838268280029297,0.021553611382842064,0.0006987899541854858
1679068252607510800,5.4085107421875,-0.12359619140625,0.01885203644633293,-0.013624422252178192
1679068252628506600,5.429506591796875,-0.13077926635742188,-0.009878383949398994,-0.001653417944908142
1679068252648525600,5.449525634765625,-0.12359619140625,-0.00030157528817653656,0.003134995698928833
1679068252668484600,5.469484619140625,-0.13317298889160156,0.009275230579078197,0.007923394441604614
1679068252688503600,5.489503662109375,-0.12120246887207031,0.014063633978366852,0.0007407963275909424
1679068252708523800,5.509523681640625,-0.11162567138671875,-0.009878383949398994,-0.001653417944908142
1679068252728420600,5.529420654296875,-0.12120246887207031,0.004486827179789543,0.010317593812942505
1679068252748501800,5.549501708984375,-0.0996541976928711,-0.0026957783848047256,-0.008836016058921814
1679068252768520700,5.569520751953125,-0.10683727264404297,-0.00030157528817653656,0.01750020682811737
1679068252788479700,5.589479736328125,-0.10444259643554688,0.011669432744383812,0.007923394441604614
1679068252808498700,5.609498779296875,-0.11162567138671875,-0.0026957783848047256,-0.004047617316246033
1679068252828518700,5.6295185546875,-0.1259908676147461,0.011669432744383812,-0.001653417944908142
1679068252848476700,5.6494765625,-0.13077831268310547,0.03770327940583229,0.000674322247505188
1679068252868496600,5.66949658203125,-0.12838363647460938,0.015851283445954323,0.0006140023469924927
1679068252888515600,5.689515625,-0.0948648452758789,-0.017667541280388832,0.01737341284751892
1679068252908474600,5.709474609375,-0.1212005615234375,0.022812295705080032,-0.001894235610961914
1679068252929470700,5.730470703125,-0.11162376403808594,-0.017889143899083138,-0.004288390278816223
1679068252950527700,5.75152783203125,-0.09965229034423828,0.006052874028682709,-0.013865195214748383
1679068252970485800,5.77148583984375,-0.12359428405761719,0.006052874028682709,-0.004288390278816223
1679068252990505700,5.791505615234375,-0.12359428405761719,0.018023882061243057,0.000500023365020752
1679068253010524700,5.811524658203125,-0.10922908782958984,-0.00591813400387764,0.012471020221710205
1679068253030483700,5.831483642578125,-0.12598896026611328,0.020418085157871246,0.007682621479034424
1679068253050502700,5.851502685546875,-0.13077735900878906,-0.00591813400387764,0.000500023365020752
1679068253070521600,5.871521484375,-0.11641216278076172,0.001264471560716629,-0.0018941909074783325
1679068253090480600,5.891480712890625,-0.13556575775146484,0.001264471560716629,0.01486523449420929
1679068253110499600,5.91149951171875,-0.12359428405761719,-0.0011297296732664108,-0.006682589650154114
1679068253131495700,5.93249560546875,-0.11162376403808594,0.010841278359293938,0.01725943386554718
1679068253151515600,5.952515625,-0.13077735900878906,0.001264471560716629,-0.004288390278816223
1679068253171473700,5.9724736328125,-0.11162376403808594,0.008447076193988323,0.0028942227363586426
1679068253191495700,5.99249560546875,-0.12838268280029297,0.022812286391854286,-0.006682589650154114
1679068253212491800,6.01349169921875,-0.11162376403808594,0.003658672794699669,-0.016259394586086273
1679068253232511700,6.03351171875,-0.11401748657226562,0.001264471560716629,-0.011470988392829895
1679068253252469800,6.0534697265625,-0.13795948028564453,0.013235479593276978,-0.006682589650154114
1679068253272306700,6.073306640625,-0.12359428405761719,0.006052874028682709,0.005288422107696533
1679068253292508700,6.0935087890625,-0.13556575775146484,0.010841278359293938,-0.013865195214748383
1679068253312284700,6.11328466796875,-0.13077926635742188,0.008275195024907589,-0.016108445823192596
1679068253332486700,6.133486572265625,-0.12120532989501953,0.02000071480870247,-0.006391584873199463
1679068253352506600,6.153506591796875,-0.12360095977783203,0.007809481583535671,0.005635619163513184
1679068253373502700,6.174502685546875,-0.12360095977783203,0.0171252079308033,0.008011624217033386
1679068253393521700,6.194521728515625,-0.106842041015625,-0.009211009368300438,0.012800022959709167
1679068253414517800,6.215517822265625,-0.11402416229248047,-0.016393614932894707,-0.003959387540817261
1679068253434476500,6.2354765625,-0.11163043975830078,-0.006816808134317398,-0.006353586912155151
1679068253454495700,6.255495849609375,-0.09487056732177734,-0.011605212464928627,-0.02071879804134369
1679068253475491600,6.27649169921875,-0.11641883850097656,-0.009211009368300438,-0.0015651881694793701
1679068253495511600,6.296511474609375,-0.09247684478759766,-0.004422606900334358,0.005617424845695496
1679068253515469600,6.316469482421875,-0.11641883850097656,0.0171252079308033,0.008011624217033386
1679068253535489800,6.33648974609375,-0.09487056732177734,-0.009211009368300438,0.0008290261030197144
1679068253556485600,6.357485595703125,-0.12599563598632812,0.014731006696820259,0.015194237232208252
1679068253576504600,6.377504638671875,-0.11402416229248047,0.0027599986642599106,0.005617424845695496
1679068253596524500,6.397524658203125,-0.11641883850097656,0.01233680546283722,-0.011141985654830933
1679068253616482600,6.417482666015625,-0.106842041015625,-0.021182017400860786,-0.003959387540817261
1679068253636502800,6.437502685546875,-0.09726524353027344,-0.021182017400860786,0.008011624217033386
1679068253656521700,6.457521728515625,-0.0996561050415039,-0.023311281576752663,0.017423376441001892
1679068253676480800,6.477480712890625,-0.11162757873535156,0.0006307363510131836,-0.006518647074699402
1679068253696499700,6.497499755859375,-0.13556957244873047,-0.0017634648829698563,-0.004124447703361511
1679068253716518700,6.5175185546875,-0.10683917999267578,-0.013734472915530205,-0.0017302483320236206
1679068253736477700,6.537477783203125,-0.1020498275756836,-0.013509290292859077,0.0006273239850997925
1679068253757473800,6.558473876953125,-0.11402034759521484,0.008038523606956005,-0.001766890287399292
1679068253777492700,6.57849267578125,-0.09247112274169922,-0.0252503901720047,0.01725958287715912
1679068253798488600,6.599488525390625,-0.10204792022705078,0.0010858271270990372,-0.004288241267204285
1679068253819485700,6.620485595703125,-0.0924692153930664,-0.024977907538414,0.0028150826692581177
1679068253839504600,6.640504638671875,-0.10922622680664062,-0.01986905373632908,0.002732113003730774
1679068253859523600,6.660523681640625,-0.1140146255493164,0.006467163562774658,-0.016421504318714142
1679068253879482600,6.680482666015625,-0.09007453918457031,-0.002967357635498047,-0.023458078503608704
1679068253900478700,6.701478759765625,-0.10683441162109375,0.02576306276023388,-0.006698668003082275
1679068253920497700,6.72149755859375,-0.10683441162109375,-0.005361558869481087,-0.009092867374420166
1679068253940517600,6.741517578125,-0.10683441162109375,-0.024515170603990555,-0.0019102692604064941
1679068253960475600,6.7614755859375,-0.12359333038330078,0.004215247929096222,-0.009092867374420166
1679068253981471700,6.7824716796875,-0.09486198425292969,-0.026680752635002136,0.012463316321372986
1679068254001491700,6.80249169921875,-0.10922527313232422,-0.016832135617733,0.012382999062538147
1679068254023525600,6.824525634765625,-0.10922527313232422,0.002321479842066765,0.0028062015771865845
1679068254044521700,6.845521728515625,-0.07810115814208984,0.002321479842066765,-0.02592422068119049
1679068254064479700,6.865479736328125,-0.10443687438964844,0.0071098823100328445,-0.01634741574525833
1679068254084498700,6.885498779296875,-0.09725475311279297,-0.014437932521104813,0.0028062015771865845
1679068254104518700,6.9055185546875,-0.10922527313232422,0.002321479842066765,-0.018741615116596222
1679068254124476700,6.9254765625,-0.09725570678710938,-0.023813437670469284,0.0005245059728622437
1679068254144478500,6.945478515625,-0.10922622680664062,0.012099586427211761,-0.0018697082996368408
1679068254164401000,6.96540087890625,-0.10443782806396484,-0.007054027169942856,0.005312904715538025
1679068254184362000,6.985362060546875,-0.10683250427246094,0.0073111820966005325,-0.0042639076709747314
1679068254204321000,7.005321044921875,-0.09964942932128906,-0.002265624701976776,-0.009052306413650513
1679068254224401000,7.02540087890625,-0.0900726318359375,-0.004659825935959816,0.0029187053442001343
1679068254244360000,7.04535986328125,-0.10443782806396484,0.02885899692773819,0.012495502829551697
1679068254264379000,7.06537890625,-0.10204410552978516,-0.009448230266571045,0.014889717102050781
1679068254284398800,7.08539892578125,-0.09964942932128906,-0.023813437670469284,0.005312904715538025
1679068254304356900,7.10535693359375,-0.10204124450683594,-0.016446959227323532,0.00992952287197113
1679068254324316000,7.12531591796875,-0.1068267822265625,-0.011447051540017128,0.002592742443084717
1679068254345373000,7.146373046875,-0.09964179992675781,-0.018379490822553635,-0.004672840237617493
1679068254365392000,7.166391845703125,-0.09245777130126953,-0.022846141830086708,0.007186859846115112
1679068254385411800,7.186411865234375,-0.0972433090209961,0.0013139788061380386,0.018961042165756226
1679068254405369900,7.206369873046875,-0.10442543029785156,-0.0034744255244731903,-0.007375180721282959
1679068254425389800,7.226389892578125,-0.09963703155517578,-0.013051232323050499,-0.01695198565721512
1679068254445409000,7.246408935546875,-0.10442543029785156,0.006102381274104118,-0.01934618502855301
1679068254465367800,7.266367919921875,-0.1187906265258789,0.0037081800401210785,-0.0025867819786071777
1679068254485387000,7.286386962890625,-0.08766651153564453,0.006102381274104118,-0.00019256770610809326
1679068254505406000,7.306406005859375,-0.07808971405029297,-0.02262803725898266,0.021355241537094116
1679068254525365000,7.326364990234375,-0.0900583267211914,-0.02239217795431614,0.006878897547721863
1679068254545323000,7.346322998046875,-0.10202693939208984,-0.019714247435331345,0.006752699613571167
1679068254565404000,7.36640380859375,-0.10441970825195312,-0.0051058996468782425,-0.007668361067771912
1679068254585362000,7.38636181640625,-0.10681438446044922,0.0020767059177160263,-0.0004857480525970459
1679068254605382000,7.4063818359375,-0.10441970825195312,-0.0146827083081007,-0.005274161696434021
1679068254626195000,7.42719482421875,-0.10681438446044922,0.004470907151699066,-0.01485096663236618
1679068254646397000,7.44739697265625,-0.10441970825195312,0.006865108385682106,-0.01724516600370407
1679068254666356000,7.46735595703125,-0.11399650573730469,-0.01947111077606678,0.006696850061416626
1679068254686375000,7.487375,-0.09244918823242188,-0.0146827083081007,0.004302650690078735
1679068254706395000,7.507394775390625,-0.11639118194580078,0.0020767059177160263,-0.005274161696434021
1679068254726353000,7.527352783203125,-0.11399650573730469,-0.0146827083081007,0.009091049432754517
1679068254746372900,7.547372802734375,-0.1044168472290039,-0.021595200523734093,0.01851615309715271
1679068254766331000,7.567330810546875,-0.10441303253173828,-0.021266981959342957,0.015905633568763733
1679068254786412000,7.587412109375,-0.08765029907226562,-0.020902879536151886,0.0037498921155929565
1679068254806370000,7.6073701171875,-0.10201358795166016,-0.013375738635659218,-0.001171991229057312
1679068254826390000,7.62739013671875,-0.10440349578857422,-0.020185863599181175,0.0130089670419693
1679068254847385900,7.6483857421875,-0.09482288360595703,-0.019792577251791954,0.0056504011154174805
1679068254867405000,7.668405029296875,-0.0996084213256836,0.011529507115483284,0.007872998714447021
1679068254887363800,7.68836376953125,-0.10918521881103516,-0.0004415009170770645,-0.006492212414741516
1679068254907383000,7.708383056640625,-0.10439395904541016,-0.012227678671479225,0.01488707959651947
1679068254928379000,7.72937890625,-0.10918045043945312,-0.019172558560967445,-0.0019838958978652954
1679068254949375000,7.750375,-0.11636066436767578,-0.0022303257137537003,0.00032053887844085693
1679068254969395000,7.77039501953125,-0.10199546813964844,-0.00701872818171978,-0.0020736604928970337
1679068254989353000,7.79035302734375,-0.11875438690185547,0.0049522798508405685,-0.0020736604928970337
1679068255009372000,7.810371826171875,-0.11396598815917969,-0.0022303257137537003,-0.0092562735080719
1679068255029392000,7.830391845703125,-0.10678386688232422,0.028894295915961266,0.012291550636291504
1679068255049410800,7.850410888671875,-0.12114906311035156,0.012134883552789688,-0.006862074136734009
1679068255069369900,7.870369873046875,-0.10678386688232422,-0.016595536842942238,0.0027147382497787476
1679068255089389000,7.89038916015625,-0.111572265625,-0.0022303257137537003,0.0027147382497787476
1679068255109409000,7.910408935546875,-0.10199546813964844,-0.009412931278347969,-0.01165047287940979
1679068255129367000,7.930366943359375,-0.12114906311035156,0.0001638755202293396,0.007503136992454529
1679068255149387000,7.950386962890625,-0.09481239318847656,-0.004624528810381889,0.00032053887844085693
1679068255170382800,7.9713828125,-0.10678386688232422,-0.00701872818171978,0.007503136992454529
1679068255191381000,7.992381103515625,-0.111572265625,-0.011807134374976158,0.014685750007629395
1679068255211401000,8.01240087890625,-0.11396598815917969,0.016923287883400917,-0.004467874765396118
1679068255231359000,8.03235888671875,-0.12114906311035156,0.021711690351366997,0.0027147382497787476
1679068255253393000,8.054392822265624,-0.12114906311035156,0.0049522798508405685,-0.016438879072666168
1679068255273411800,8.074411865234374,-0.11875534057617188,0.02387763187289238,0.0050831139087677
1679068255294408000,8.095407958984374,-0.10199642181396484,-0.016823796555399895,0.007477313280105591
1679068255315405000,8.116405029296875,-0.12833213806152344,0.0190892294049263,-0.011676296591758728
1679068255336401000,8.13740087890625,-0.10917854309082031,-0.014429593458771706,0.02423672378063202
1679068255356359000,8.15735888671875,-0.09960174560546875,0.02148343063890934,-0.006887897849082947
1679068255376377900,8.1773779296875,-0.12115001678466797,-0.002458585426211357,-0.014070495963096619
1679068255396397800,8.197397705078124,-0.10199642181396484,0.004724020138382912,-0.014070495963096619
1679068255416355800,8.21735595703125,-0.13072872161865234,0.0403294712305069,-0.002031475305557251
1679068255437412900,8.238412841796874,-0.10200214385986328,0.0017905905842781067,-0.0257737934589386
1679068255457372000,8.258371826171874,-0.1307353973388672,0.018275626003742218,-0.00407034158706665
1679068255477269000,8.27826904296875,-0.09721660614013672,-0.020031599327921867,0.010294869542121887
1679068255497410800,8.298410888671874,-0.11637020111083984,0.00869881920516491,-0.008858740329742432
1679068255517247000,8.3182470703125,-0.1043996810913086,0.037124767899513245,0.0031373202800750732
1679068255537117000,8.338116943359376,-0.11397933959960938,-0.014104679226875305,-0.004025101661682129
1679068255557136000,8.358135986328126,-0.1067972183227539,0.007443137466907501,0.007945910096168518
1679068255577794000,8.3787939453125,-0.11158561706542969,-0.009316273033618927,-0.0016308873891830444
1679068255606659000,8.4076591796875,-0.1091909408569336,-0.004527870565652847,0.0007633119821548462
1679068255626552800,8.427552734375,-0.12116241455078125,-0.004527870565652847,-0.01599610596895218
1679068255646546000,8.4475458984375,-0.12116241455078125,-0.009316273033618927,0.003157511353492737
1679068255667541800,8.468541748046874,-0.12116241455078125,-0.016498878598213196,0.010340109467506409
1679068255687560700,8.488560791015624,-0.10200881958007812,-0.021287281066179276,0.003157511353492737
1679068255707581000,8.508580810546874,-0.12355613708496094,0.005048936232924461,-0.00881350040435791
1679068255727538700,8.52853857421875,-0.10440254211425781,-0.014104679226875305,-0.02078450471162796
1679068255747559000,8.548558837890624,-0.1091909408569336,0.007443137466907501,-0.01839030534029007
1679068255768554800,8.5695546875,-0.11158561706542969,0.0002605319023132324,-0.0016308873891830444
1679068255788573700,8.58957373046875,-0.12834453582763672,-0.006922073662281036,-0.0112076997756958
1679068255808532700,8.60953271484375,-0.10440254211425781,-0.021287281066179276,-0.0064193010330200195
1679068255828552000,8.629552001953124,-0.11876773834228516,0.02420254983007908,0.0007633119821548462
1679068255848572000,8.649572021484374,-0.10440254211425781,-0.004527870565652847,-0.00881350040435791
1679068255868530000,8.669530029296874,-0.11876773834228516,0.01941414549946785,0.0007633119821548462
1679068255888550000,8.6895498046875,-0.11637401580810547,0.012231540866196156,0.015128523111343384
1679068255908568800,8.70956884765625,-0.11637401580810547,-0.016498878598213196,-0.0064193010330200195
1679068255928528000,8.72952783203125,-0.09003734588623047,0.0026547349989414215,-0.0064193010330200195
1679068255948546800,8.749546875,-0.1355276107788086,0.02180834859609604,-0.0016308873891830444
1679068255969543000,8.77054296875,-0.11876773834228516,0.0026547349989414215,-0.0112076997756958
1679068255989563000,8.79056298828125,-0.11876773834228516,-0.011710476130247116,-0.0064193010330200195
1679068256009521000,8.81052099609375,-0.10200881958007812,-0.009316273033618927,-0.01839030534029007
1679068256029540900,8.830540771484374,-0.11397933959960938,0.012231540866196156,-0.0064193010330200195
1679068256049559800,8.850559814453124,-0.1307392120361328,0.01941414549946785,0.007945910096168518
1679068256069578800,8.870578857421876,-0.11876964569091797,0.014431942254304886,-0.011088550090789795
1679068256089537800,8.890537841796874,-0.12355899810791016,-0.007238209247589111,0.000907599925994873
1679068256109556700,8.910556640625,-0.13074207305908203,0.009521203115582466,0.000907599925994873
1679068256130552800,8.931552734375,-0.12595367431640625,0.007127001881599426,0.000907599925994873
1679068256150572800,8.95157275390625,-0.11637687683105469,0.01191540528088808,0.000907599925994873
1679068256170530800,8.97153076171875,-0.12355899810791016,-0.0024498049169778824,0.000907599925994873
1679068256190552800,8.991552734375,-0.11158943176269531,0.018994281068444252,-0.0038352161645889282
1679068256210572800,9.01157275390625,-0.12595558166503906,-0.007437247782945633,0.0009878277778625488
1679068256230530800,9.03153076171875,-0.10919570922851562,-0.014619853347539902,-0.0038005858659744263
1679068256250550800,9.05155078125,-0.13553237915039062,0.0308699794113636,-0.0014063715934753418
1679068256270569700,9.07156982421875,-0.1139841079711914,0.01878504455089569,0.008166536688804626
1679068256290528800,9.09152880859375,-0.13553237915039062,0.011366608552634716,-0.006235644221305847
1679068256310547700,9.111547607421874,-0.13553237915039062,0.013472933322191238,0.008043676614761353
1679068256330568000,9.13156787109375,-0.12595558166503906,0.010856795124709606,0.005603328347206116
1679068256350525700,9.151525634765624,-0.1139822006225586,0.013024203479290009,0.02699148654937744
1679068256370546000,9.1715458984375,-0.10440444946289062,0.012738700956106186,-0.028164908289909363
1679068256390564900,9.19156494140625,-0.10919380187988281,0.024387825280427933,0.0029362887144088745
1679068256410524000,9.21152392578125,-0.10919380187988281,0.01212150976061821,0.012466728687286377
1679068256430482000,9.23148193359375,-0.11637687683105469,0.011848405003547668,0.014803886413574219
1679068256450562800,9.251562744140625,-0.12595272064208984,0.023583339527249336,0.012354299426078796
1679068256470581800,9.271581787109374,-0.12834644317626953,-0.00275287963449955,-0.009193524718284607
1679068256490539800,9.291539794921874,-0.10679912567138672,0.009218129329383373,-0.002010911703109741
1679068256511535900,9.312535888671874,-0.11637592315673828,0.006745651364326477,0.01707814633846283
1679068256532532700,9.33353271484375,-0.13074016571044922,-0.022065313532948494,0.007439777255058289
1679068256552552000,9.353552001953124,-0.11876773834228516,-0.0077890269458293915,-0.0022086352109909058
1679068256572571000,9.37357080078125,-0.09482574462890625,-0.02454843372106552,-0.0022086650133132935
1679068256592530000,9.393530029296874,-0.11876773834228516,0.013758787885308266,-0.009391248226165771
1679068256612548900,9.413548828125,-0.12355613708496094,0.006576186046004295,-0.01417967677116394
1679068256632568800,9.43356884765625,-0.11876773834228516,0.013758787885308266,0.009762361645698547
1679068256652526800,9.45352685546875,-0.11397933959960938,-0.01736583188176155,-0.00939127802848816
1679068256672546800,9.473546875,-0.12834453582763672,0.006576182320713997,-0.02136225253343582
1679068256692565800,9.493565673828124,-0.1307392120361328,0.0041819848120212555,-0.01417967677116394
1679068256713561900,9.514561767578124,-0.12355613708496094,0.006576182320713997,0.007368162274360657
1679068256733581800,9.534581787109374,-0.11397933959960938,0.025729799643158913,0.016944944858551025
1679068256753539800,9.554539794921874,-0.12116241455078125,0.0016854610294103622,-0.004652157425880432
1679068256773499000,9.574498779296874,-0.1091909408569336,0.015950683504343033,-0.00706326961517334
1679068256793578800,9.594578857421874,-0.12595081329345703,0.02047855220735073,0.012040555477142334
1679068256814574800,9.615574951171874,-0.11876773834228516,0.003606043756008148,-0.01668039709329605
1679068256834534000,9.635533935546874,-0.12595272064208984,0.005723103880882263,-0.004656121134757996
1679068256854492000,9.655491943359374,-0.1163778305053711,0.0007203370332717896,-0.018917791545391083
1679068256875549000,9.676548828125,-0.1163778305053711,0.012691345065832138,-0.009340986609458923
1679068256895569000,9.69656884765625,-0.12834835052490234,0.0031145382672548294,-0.009340986609458923
1679068256916564700,9.717564697265624,-0.12355995178222656,0.019873950630426407,0.000235825777053833
1679068256936401000,9.73740087890625,-0.12595462799072266,0.031703196465969086,-0.004541754722595215
1679068256956542700,9.757542724609374,-0.1163787841796875,0.014639455825090408,-0.0021517425775527954
1679068256976562000,9.77756201171875,-0.10680198669433594,-0.009417194873094559,0.0026286542415618896
1679068256996582000,9.797581787109374,-0.11158943176269531,0.004856523126363754,0.007371172308921814
1679068257016540000,9.817539794921874,-0.11158943176269531,0.009644927456974983,0.0025827735662460327
1679068257036560000,9.837559814453124,-0.113983154296875,0.012039128690958023,0.007371172308921814
1679068257057555700,9.8585556640625,-0.10201263427734375,-0.016804611310362816,-0.004653498530387878
1679068257077575000,9.878574951171874,-0.10440635681152344,-0.004833603277802467,0.004923313856124878
1679068257097533700,9.89853369140625,-0.1379251480102539,0.031079422682523727,-0.004653498530387878
1679068257117553000,9.918552978515624,-0.12355995178222656,0.007137405686080456,0.0025291144847869873
1679068257137571800,9.93857177734375,-0.12355995178222656,0.01432001031935215,-0.00944189727306366
1679068257157531000,9.95853076171875,-0.1163778305053711,0.018995271995663643,0.00012493133544921875
1679068257178467800,9.9794677734375,-0.12834835052490234,0.009418465197086334,0.0025191307067871094
1679068257198548700,9.999548828125,-0.11877155303955078,0.009418465197086334,-0.002269268035888672
1679068257218568000,10.01956787109375,-0.12834930419921875,0.02126295678317547,-0.014205798506736755
1679068257238526700,10.039526611328125,-0.13792800903320312,0.011439481750130653,-0.011740297079086304
1679068257258546000,10.0595458984375,-0.11638259887695312,0.015956327319145203,0.0026992708444595337
1679068257278566000,10.07956591796875,-0.1235647201538086,0.03002801351249218,0.012281522154808044
1679068257298524000,10.09952392578125,-0.13074874877929688,0.012916317209601402,-0.011695995926856995
1679068257318544000,10.1195439453125,-0.10920047760009766,0.0030599217861890793,-0.016475237905979156
1679068257339539700,10.140539794921875,-0.11638355255126953,-0.018619026988744736,0.012262985110282898
1679068257359559000,10.160558837890624,-0.11877727508544922,0.005322990007698536,0.000291973352432251
1679068257380554800,10.1815546875,-0.10201740264892578,0.012414591386914253,0.026533842086791992
1679068257400513800,10.201513671875,-0.10919761657714844,0.0026459749788045883,0.004815816879272461
1679068257420532700,10.22153271484375,-0.12356090545654297,-0.002338279038667679,0.004668369889259338
1679068257440552700,10.241552734375,-0.12355804443359375,-0.014477178454399109,0.01642899215221405
1679068257460572000,10.261572021484374,-0.11398124694824219,0.004676436074078083,-0.009907230734825134
1679068257480531000,10.281531005859375,-0.10679912567138672,-0.01208297535777092,-0.0027246177196502686
1679068257500550000,10.3015498046875,-0.1091928482055664,0.0022822339087724686,-0.00033041834831237793
1679068257521545700,10.322545654296874,-0.1379232406616211,0.009464839473366737,-0.0027246177196502686
1679068257542358800,10.34335888671875,-0.11876964569091797,-0.002506168559193611,0.0020637810230255127
1679068257563538000,10.364537841796874,-0.12116432189941406,-0.021659784018993378,-0.009907230734825134
1679068257584533800,10.38553369140625,-0.12834644317626953,-0.00968877412378788,-0.009907230734825134
1679068257604553700,10.4055537109375,-0.10679912567138672,-0.026448186486959457,-0.017089836299419403
1679068257624573000,10.425572998046874,-0.10201072692871094,0.0070706382393836975,0.006852179765701294
1679068257644531700,10.44553173828125,-0.1115875244140625,0.021435847505927086,-0.009907230734825134
1679068257664551000,10.465551025390624,-0.11876964569091797,0.004676436074078083,-0.021878235042095184
1679068257684571000,10.48557080078125,-0.1379232406616211,-0.00011196732521057129,0.006852179765701294
1679068257705566700,10.506566650390624,-0.13074111938476562,0.014253242872655392,0.0020637810230255127
1679068257726562800,10.527562744140624,-0.12595272064208984,0.014152192510664463,-0.00035236775875091553
1679068257747559000,10.548558837890624,-0.09482765197753906,0.0043439557775855064,-0.0028389394283294678
1679068257767577900,10.568577880859374,-0.10440444946289062,-0.017203858122229576,-0.0028389394283294678
1679068257787537000,10.588536865234374,-0.1115875244140625,-0.014809658750891685,-0.021992556750774384
1679068257809569800,10.61056982421875,-0.12595272064208984,0.006738157942891121,-0.00044474005699157715
1679068257830566000,10.63156591796875,-0.12834644317626953,0.013920762576162815,-0.005233153700828552
1679068257850463700,10.651463623046874,-0.12595272064208984,0.013920762576162815,0.01870886981487274
1679068257870544000,10.6715439453125,-0.1331348419189453,0.028285972774028778,0.004343658685684204
1679068257891539700,10.692539794921874,-0.11398124694824219,0.00913235917687416,-0.00044474005699157715
1679068257911560000,10.712559814453124,-0.12595272064208984,0.0043439557775855064,-0.005233153700828552
1679068257932555800,10.7335556640625,-0.11637496948242188,0.023374855518341064,0.013867005705833435
1679068257952574700,10.75357470703125,-0.1379222869873047,0.018345091491937637,0.0090523362159729
1679068257973570800,10.77457080078125,-0.11876964569091797,0.013556688092648983,0.0018697381019592285
1679068257993529900,10.79452978515625,-0.09722232818603516,-0.02235633321106434,-0.012495502829551697
1679068258014525700,10.815525634765624,-0.11637592315673828,0.015950890257954597,0.0090523362159729
1679068258034545000,10.835544921875,-0.1091928482055664,-0.003202717751264572,-0.017283909022808075
1679068258054564900,10.85556494140625,-0.1379232406616211,0.006374083459377289,-0.010101273655891418
1679068258074583800,10.875583740234376,-0.1091928482055664,0.003979886882007122,-0.014889702200889587
1679068258094542800,10.89554296875,-0.1091928482055664,-0.012779530137777328,-0.0005244612693786621
1679068258114561800,10.915561767578126,-0.1115875244140625,-0.007991122081875801,-0.019678108394145966
1679068258134581800,10.935581787109374,-0.1115875244140625,-0.019962135702371597,0.0018697381019592285
1679068258154539800,10.955539794921876,-0.1331348419189453,0.003979886882007122,0.013840720057487488
1679068258174500900,10.9755009765625,-0.12116432189941406,0.008768284693360329,-0.010101273655891418
1679068258194581800,10.995581787109375,-0.12595272064208984,-0.007991122081875801,0.006658107042312622
1679068258214478800,11.015478759765625,-0.1091928482055664,-0.029538940638303757,-0.0029186606407165527
1679068258234559700,11.035559814453125,-0.10201072692871094,-0.01996213011443615,0.0018697082996368408
1679068258254578700,11.05557861328125,-0.11637592315673828,0.018345091491937637,-0.007707074284553528
1679068258274537700,11.075537841796875,-0.1355295181274414,0.008768290281295776,-0.014889702200889587
1679068258294557000,11.095556884765625,-0.10440444946289062,-0.007991127669811249,-0.0029186606407165527
1679068258315552800,11.116552734375,-0.11637592315673828,-0.005596918985247612,-0.014889702200889587
1679068258336548900,11.137548828125,-0.09722232818603516,-0.007991127669811249,-0.0029186606407165527
1679068258357544700,11.158544677734374,-0.12355804443359375,0.020739298313856125,0.009052306413650513
1679068258377565000,11.17856494140625,-0.0852508544921875,-0.027144741266965866,-0.0148896723985672
1679068258397584000,11.198583984375,-0.1403179168701172,0.015950895845890045,0.006658107042312622
1679068258417543000,11.21854296875,-0.10201072692871094,-0.029538940638303757,-0.005312874913215637
1679068258437561900,11.238561767578124,-0.13074111938476562,0.003979886882007122,-0.0077071040868759155
1679068258457581800,11.258581787109375,-0.12355804443359375,0.011162485927343369,-0.012495473027229309
1679068258477539800,11.278539794921874,-0.09722232818603516,0.015950895845890045,0.013840720057487488
1679068258497558800,11.298558837890624,-0.1403179168701172,-0.007991127669811249,-0.010101273655891418
1679068258517578800,11.318578857421874,-0.1091928482055664,-0.010385323315858841,-0.005312904715538025
1679068258537536800,11.338536865234374,-0.10440444946289062,0.011162485927343369,-0.007707074284553528
1679068258557556700,11.358556640625,-0.09243392944335938,-0.02953893505036831,0.01623491942882538
1679068258577576000,11.378575927734374,-0.09961509704589844,-0.015062641352415085,0.009030476212501526
1679068258598571800,11.39957177734375,-0.1067962646484375,-0.021937523037195206,0.004143089056015015
1679068258618530800,11.41953076171875,-0.09721755981445312,-0.026345448568463326,0.011239051818847656
1679068258638549800,11.4395498046875,-0.1235504150390625,-0.023504337295889854,0.006346121430397034
1679068258658569700,11.45956982421875,-0.11397075653076172,-0.015854831784963608,0.01579001545906067
1679068258679565800,11.48056591796875,-0.10439205169677734,0.008359653875231743,0.0012970417737960815
1679068258700500700,11.501500732421874,-0.13072681427001953,-0.022461500018835068,0.005991727113723755
1679068258721557800,11.522557861328124,-0.10678386688232422,-0.0008041821420192719,-0.02038022130727768
1679068258741576700,11.54257666015625,-0.09241771697998047,-0.0220856424421072,0.017896145582199097
1679068258761535700,11.56253564453125,-0.09959983825683594,-0.010016042739152908,-0.01086387038230896
1679068258781554700,11.5825546875,-0.10438823699951172,0.00925210490822792,-0.027610257267951965
1679068258801575000,11.602574951171874,-0.10438823699951172,-0.014455020427703857,-0.008348405361175537
1679068258821533000,11.622532958984374,-0.09481334686279297,-0.011844059452414513,-0.008207827806472778
1679068258841550800,11.64255078125,-0.12115097045898438,0.009809954091906548,0.003807172179222107
1679068258861569800,11.66256982421875,-0.1163625717163086,0.0002331472933292389,-0.015346482396125793
1679068258881528800,11.68252880859375,-0.11875629425048828,-0.00694945827126503,-0.00816383957862854
1679068258901547800,11.7025478515625,-0.111572265625,-0.013877850025892258,0.0037825554609298706
1679068258921567700,11.722567626953126,-0.09481143951416016,-0.01601395383477211,0.013301089406013489
1679068258942563800,11.743563720703126,-0.11156940460205078,-0.022915523499250412,-0.0035479366779327393
1679068258962582800,11.763582763671875,-0.10677909851074219,-0.01780170202255249,0.01314195990562439
1679068258982480600,11.783480712890626,-0.10438251495361328,-0.0031051672995090485,-0.003739297389984131
1679068259002560800,11.803560791015625,-0.09959220886230469,-0.0004225634038448334,-0.020551078021526337
1679068259022580700,11.823580810546876,-0.10677528381347656,-0.019333302974700928,0.01297132670879364
1679068259042538800,11.843538818359375,-0.10677528381347656,-0.004753917455673218,-0.006163284182548523
1679068259062557700,11.8635576171875,-0.097198486328125,-0.019119126722216606,0.005807727575302124
1679068259084530700,11.88553076171875,-0.11395740509033203,-0.02125607058405876,0.0010930001735687256
1679068259104550700,11.905550537109375,-0.09959220886230469,-0.009028494358062744,-0.0012766718864440918
1679068259125546800,11.926546630859375,-0.0948019027709961,-0.013531947508454323,0.003496110439300537
1679068259145504800,11.9465048828125,-0.12353229522705078,-0.003714408725500107,-0.008458524942398071
1679068259165523700,11.966523681640625,-0.08283138275146484,-0.018079617992043495,-0.006064325571060181
1679068259185546800,11.986546630859374,-0.09959030151367188,-0.015476049855351448,0.005960032343864441
1679068259205565700,12.006565673828124,-0.11156082153320312,-0.019996367394924164,0.0035766959190368652
1679068259225523700,12.026523681640626,-0.0900125503540039,-0.010191032662987709,0.0035530030727386475
1679068259245543700,12.046543701171874,-0.10198402404785156,0.0017799697816371918,-0.008417993783950806
1679068259265562600,12.066562744140626,-0.12353038787841797,-0.014865593984723091,-0.0012221038341522217
1679068259285582800,12.086582763671874,-0.10198307037353516,-0.0028945840895175934,-0.008404716849327087
1679068259305540900,12.106540771484376,-0.08522319793701172,0.018653230741620064,-0.01558731496334076
1679068259325560800,12.126560791015624,-0.09479999542236328,-0.012471390888094902,0.00596049427986145
1679068259345579800,12.146579833984376,-0.10916519165039062,-0.0005003828555345535,-0.01558731496334076
1679068259365538800,12.166538818359374,-0.1163482666015625,0.006682222709059715,-0.0036163032054901123
1679068259386534700,12.18753466796875,-0.0900115966796875,-0.0005003828555345535,-0.0036163032054901123
1679068259406553900,12.207553955078126,-0.12353038787841797,0.0018938202410936356,0.0035662949085235596
1679068259426573800,12.22757373046875,-0.0924062728881836,-0.014865593984723091,-0.010798916220664978
1679068259446470700,12.247470703125,-0.1163482666015625,0.006682222709059715,-0.0036163032054901123
1679068259466551800,12.2675517578125,-0.10677146911621094,-0.0005003828555345535,-0.013193115592002869
1679068259486570800,12.28757080078125,-0.0900115966796875,-0.0005003828555345535,-0.013193115592002869
1679068259507566800,12.30856689453125,-0.12353038787841797,0.023441635072231293,-0.008404716849327087
1679068259527870000,12.328869873046875,-0.0924062728881836,-0.02204819582402706,0.013143107295036316
1679068259549109800,12.35010986328125,-0.08282947540283203,-0.010077187791466713,-0.010798916220664978
1679068259569067800,12.37006787109375,-0.12353038787841797,0.03062424063682556,-0.006010517477989197
1679068259589087700,12.390087646484375,-0.0924062728881836,0.009076423943042755,0.001172095537185669
1679068259608824300,12.40982421875,-0.1163482666015625,-0.0028945840895175934,-0.008404716849327087
1679068259628783400,12.429783447265624,-0.12113666534423828,0.006682222709059715,-0.025164127349853516
1679068259648802300,12.44980224609375,-0.12113666534423828,0.013864828273653984,-0.0036163032054901123
1679068259669798400,12.47079833984375,-0.0900115966796875,-0.005288785323500633,-0.017981521785259247
1679068259689818400,12.490818359375,-0.10437679290771484,-0.005288785323500633,-0.013193115592002869
1679068259709776400,12.5107763671875,-0.1139535903930664,-0.01965399645268917,0.001172095537185669
1679068259730772500,12.5317724609375,-0.09479999542236328,-0.0028945840895175934,-0.010798916220664978
1679068259750792400,12.55179248046875,-0.1211385726928711,0.021127041429281235,0.010830864310264587
1679068259770811400,12.571811279296876,-0.0948019027709961,-0.02196858637034893,0.008436650037765503
1679068259790769400,12.591769287109376,-0.12592697143554688,-0.01718018390238285,0.001254051923751831
1679068259810789400,12.611789306640626,-0.0948019027709961,-0.01478598453104496,-0.013111159205436707
1679068259830808300,12.631808349609376,-0.09719657897949219,-0.01718018390238285,0.008436650037765503
1679068259850767400,12.651767333984376,-0.11635017395019531,-0.0004207734018564224,-0.020293764770030975
1679068259870786300,12.671786376953126,-0.0948019027709961,0.0019734296947717667,-0.010716959834098816
1679068259890806500,12.691806640625,-0.09959030151367188,0.006761832162737846,-0.005928561091423035
1679068259910825500,12.711825439453126,-0.12353229522705078,0.03549225255846977,0.02040766179561615
1679068259930784500,12.731784423828126,-0.09001350402832031,0.013944437727332115,0.0036482512950897217
1679068259950803500,12.751803466796876,-0.11395549774169922,0.025915445759892464,-0.005928561091423035
1679068259970823400,12.771823486328126,-0.11156177520751953,-0.02196858637034893,-0.00353434681892395
1679068259990781400,12.791781494140626,-0.11635017395019531,0.030703850090503693,0.010830864310264587
1679068260010801400,12.811801513671876,-0.1211385726928711,0.0043676309287548065,0.0036482512950897217
1679068260030701800,12.831701904296875,-0.11156177520751953,-0.0028149746358394623,0.0036482512950897217
1679068260050660600,12.85166064453125,-0.06367778778076172,-0.007603378966450691,-0.03226477652788162
1679068260070679800,12.8716796875,-0.13310909271240234,0.025915445759892464,0.006042450666427612
1679068260090699800,12.89169970703125,-0.09001350402832031,-0.0004207734018564224,-0.03944738209247589
1679068260110633500,12.911633544921875,-0.0924081802368164,0.021127041429281235,0.001254051923751831
1679068260130652400,12.93165234375,-0.1211385726928711,-0.0004207734018564224,-0.008322760462760925
1679068260150672400,12.95167236328125,-0.11395549774169922,0.0115502355620265,-0.0011401474475860596
1679068260170475000,12.97147509765625,-0.10437870025634766,-0.01718018390238285,0.02040766179561615
1679068260190497000,12.9914970703125,-0.10916709899902344,-0.012391781434416771,-0.008322760462760925
1679068260210517200,13.011517333984376,-0.12353229522705078,0.0115502355620265,0.010830864310264587
1679068260230475000,13.03147509765625,-0.10916709899902344,-0.009997578337788582,0.01801346242427826
1679068260250495200,13.0514951171875,-0.1211385726928711,-0.007603378966450691,-0.008322760462760925
1679068260270514200,13.07151416015625,-0.10916709899902344,0.013944437727332115,-0.005928561091423035
1679068260290473200,13.09147314453125,-0.13071537017822266,0.018732840195298195,-0.013111159205436707
1679068260310492200,13.1114921875,-0.1211385726928711,0.009156033396720886,-0.005928561091423035
1679068260330512100,13.13151220703125,-0.11395549774169922,-0.0028149746358394623,-0.015505358576774597
1679068260350470100,13.15147021484375,-0.14029216766357422,0.028309646993875504,0.006042450666427612
1679068260370490000,13.171489990234376,-0.11395549774169922,0.0019734296947717667,0.001254051923751831
1679068260390509000,13.191509033203126,-0.10198497772216797,-0.009997578337788582,-0.010716959834098816
1679068260410529000,13.211529052734376,-0.14029216766357422,0.009156033396720886,-0.005928561091423035
1679068260431525000,13.232525146484376,-0.09001350402832031,0.009156033396720886,-0.013111159205436707
1679068260451483100,13.252483154296876,-0.13550376892089844,-0.012391781434416771,-0.00353434681892395
1679068260471503000,13.272503173828126,-0.10198497772216797,-0.01718018390238285,-0.00353434681892395
1679068260492499200,13.293499267578126,-0.12353229522705078,0.021127041429281235,0.0036482512950897217
1679068260512518100,13.31351806640625,-0.1211385726928711,-0.012391781434416771,-0.005928561091423035
1679068260532477200,13.333477294921876,-0.09959030151367188,0.018732840195298195,0.001254051923751831
1679068260552496000,13.35349609375,-0.10916709899902344,-0.01957438699901104,0.008436650037765503
1679068260572454100,13.3734541015625,-0.11635017395019531,0.016338638961315155,-0.008322760462760925
1679068260592474000,13.39347412109375,-0.13310909271240234,0.025915445759892464,-0.005928561091423035
1679068260612493000,13.4134931640625,-0.12592697143554688,0.006761832162737846,-0.013111159205436707
1679068260632513000,13.433512939453125,-0.1474742889404297,0.03549225255846977,-0.008322760462760925
1679068260652471000,13.453470947265625,-0.10437870025634766,0.009156033396720886,-0.008322760462760925
1679068260673528000,13.474528076171875,-0.09719657897949219,0.0019734296947717667,0.010830864310264587
1679068260693487000,13.494487060546875,-0.12832069396972656,-0.01957438699901104,-0.008322760462760925
1679068260713506000,13.514506103515625,-0.09719657897949219,-0.005209175869822502,-0.010716959834098816
1679068260733526000,13.534526123046875,-0.13071537017822266,0.006761832162737846,-0.005928561091423035
1679068260753484000,13.554484130859375,-0.13789749145507812,0.03309804946184158,0.010830864310264587
1679068260773504000,13.57450390625,-0.11156177520751953,-0.0004207734018564224,-0.015505358576774597
1679068260793523200,13.594523193359375,-0.12353229522705078,-0.0028149746358394623,-0.010716959834098816
1679068260813482200,13.614482177734375,-0.09959030151367188,-0.012391781434416771,-0.008322760462760925
1679068260834478000,13.63547802734375,-0.10916709899902344,0.0019734296947717667,0.001254051923751831
1679068260855474200,13.65647412109375,-0.12832069396972656,0.025915445759892464,-0.0011401474475860596
1679068260875493000,13.6764931640625,-0.08283138275146484,-0.0028149746358394623,0.0036482512950897217
1679068260895513000,13.69651318359375,-0.13789749145507812,0.030703850090503693,-0.010716959834098816
1679068260915288000,13.7162880859375,-0.09719657897949219,-0.012391781434416771,-0.0011401474475860596
1679068260935491000,13.736490966796875,-0.10916709899902344,0.006761832162737846,0.001254051923751831
1679068260955510000,13.756510009765625,-0.13310909271240234,0.030703850090503693,-0.017899565398693085
1679068260975530200,13.7765302734375,-0.13071727752685547,0.023311961442232132,0.0037340521812438965
1679068260995427000,13.796427001953125,-0.11156368255615234,-0.01271357573568821,0.0013597309589385986
1679068261016484000,13.817484130859375,-0.11156368255615234,0.011228441260755062,-0.0034286677837371826
1679068261037480200,13.838480224609375,-0.09959220886230469,-0.02229038067162037,0.010936543345451355
1679068261059514000,13.86051416015625,-0.11635208129882812,0.020805247128009796,0.0037539303302764893
1679068261079472000,13.88047216796875,-0.1259288787841797,0.008834239095449448,-0.001034468412399292
1679068261099492000,13.9004921875,-0.11156368255615234,0.020805247128009796,-0.001034468412399292
1679068261119511000,13.920510986328125,-0.14029407501220703,0.030382055789232254,-0.0034286677837371826
1679068261139470000,13.940469970703125,-0.10198688507080078,-0.01271357573568821,0.020513340830802917
1679068261159489000,13.960489013671875,-0.11635208129882812,0.016016844660043716,-0.005822882056236267
1679068261179450000,13.9804501953125,-0.11874580383300781,-0.01750197820365429,-0.001034468412399292
1679068261199470000,14.000469970703126,-0.11156368255615234,0.011228441260755062,-0.017793886363506317
1679068261219489000,14.020489013671876,-0.11156368255615234,-0.005530970171093941,-0.013005480170249939
1679068261239509200,14.04050927734375,-0.1235342025756836,0.016016844660043716,0.00614812970161438
1679068261259528200,14.060528076171876,-0.09001541137695312,0.023199450224637985,-0.005822882056236267
1679068261279486200,14.080486328125,-0.13311100006103516,0.016016844660043716,-0.0034286677837371826
1679068261300482000,14.10148193359375,-0.097198486328125,-0.01989618130028248,-0.013005480170249939
1679068261321479200,14.122479248046876,-0.1259288787841797,0.027987852692604065,-0.013005480170249939
1679068261341498000,14.142498046875,-0.10198688507080078,-0.01271357573568821,0.013330742716789246
1679068261362494200,14.163494140625,-0.13789939880371094,0.035170458257198334,0.010936543345451355
1679068261382452200,14.1834521484375,-0.09241008758544922,0.004045836627483368,-0.005822882056236267
1679068261402472200,14.20347216796875,-0.11156368255615234,-0.01750197820365429,-0.008217081427574158
1679068261422430200,14.22343017578125,-0.1211404800415039,0.016016844660043716,-0.005822882056236267
1679068261442450200,14.2434501953125,-0.11156368255615234,0.001651635393500328,-0.001034468412399292
1679068261462408200,14.263408203125,-0.08762168884277344,-0.01989618130028248,-0.001034468412399292
1679068261482489000,14.283489013671876,-0.14268779754638672,0.030382055789232254,0.0013597309589385986
1679068261503485200,14.304485107421876,-0.12832260131835938,0.020805247128009796,-0.013005480170249939
1679068261524481000,14.32548095703125,-0.10438060760498047,0.011228441260755062,-0.005822882056236267
1679068261544500200,14.345500244140625,-0.11635208129882812,0.011228441260755062,-0.017793886363506317
1679068261564520200,14.365520263671876,-0.10677528381347656,-0.00792517326772213,-0.013005480170249939
1679068261586492200,14.3874921875,-0.11156368255615234,0.006440037861466408,-0.008217081427574158
1679068261606512000,14.40751220703125,-0.0995950698852539,0.006266864016652107,-0.00806497037410736
1679068261626470100,14.42747021484375,-0.11635684967041016,0.02763509936630726,0.00882934033870697
1679068261646490000,14.447489990234375,-0.12354087829589844,0.008255206048488617,-0.0030546486377716064
1679068261666509000,14.467509033203125,-0.1355142593383789,0.019971676170825958,-0.0053436607122421265
1679068261686529000,14.487529052734375,-0.12115097045898438,0.014891402795910835,-0.010041996836662292
1679068261706487000,14.507487060546875,-0.12833499908447266,-0.0021295789629220963,-0.009947195649147034
1679068261726507000,14.527507080078125,-0.13312530517578125,0.011954829096794128,-0.0026775002479553223
1679068261747503000,14.548503173828125,-0.11158084869384766,0.004582930356264114,-0.014520809054374695
1679068261767522000,14.56852197265625,-0.11637115478515625,0.0019897855818271637,0.004756122827529907
1679068261787481000,14.588481201171875,-0.12115955352783203,-0.00040441565215587616,-0.014397487044334412
1679068261807500000,14.6085,-0.1043996810913086,-0.019558029249310493,-0.00721488893032074
1679068261828496100,14.62949609375,-0.11158275604248047,-0.014769626781344414,-0.0167916938662529
1679068261849492200,14.6504921875,-0.10918807983398438,0.0043839868158102036,-0.000032275915145874023
1679068261870488000,14.671488037109375,-0.12355327606201172,0.011566592380404472,-0.02636849880218506
1679068261891484200,14.692484130859375,-0.10918903350830078,-0.0076036471873521805,-0.0023249536752700806
1679068261911443200,14.712443115234375,-0.09961223602294922,-0.0028152447193861008,-0.021478570997714996
1679068261931523000,14.732523193359375,-0.104400634765625,0.006761562079191208,-0.014295965433120728
1679068261951421200,14.752421142578125,-0.14510631561279297,0.018636975437402725,-0.009286120533943176
1679068261971501000,14.7725009765625,-0.12116432189941406,-0.026852857321500778,-0.006891921162605286
1679068261991460000,14.792460205078125,-0.1091928482055664,-0.002910841256380081,-0.018862925469875336
1679068262011479000,14.81247900390625,-0.1115875244140625,0.004271764308214188,0.0002906918525695801
1679068262032475100,14.83347509765625,-0.12595272064208984,0.011454369872808456,-0.011680319905281067
1679068262052495000,14.8534951171875,-0.11637687683105469,0.011354753747582436,-0.016411475837230682
1679068262072514000,14.87351416015625,-0.10919475555419922,0.004071025177836418,0.012373104691505432
1679068262092473000,14.89347314453125,-0.113983154296875,0.008859428577125072,-0.01875152438879013
1679068262113469200,14.91446923828125,-0.1163778305053711,0.006465226411819458,-0.013963118195533752
1679068262133488000,14.934488037109375,-0.1211690902709961,0.01828635483980179,-0.009019196033477783
1679068262154484200,14.955484130859375,-0.1211690902709961,-0.010444073006510735,-0.013807550072669983
1679068262174445000,14.975445068359376,-0.13313961029052734,0.01828635483980179,0.0029518157243728638
1679068262194526200,14.995526123046876,-0.10440921783447266,-0.015232475474476814,-0.013807550072669983
1679068262214423000,15.015423095703126,-0.10680389404296875,0.01828635483980179,0.022105425596237183
1679068262234504200,15.035504150390626,-0.11159229278564453,-0.0032614674419164658,-0.006624951958656311
1679068262254523100,15.055523193359376,-0.12595748901367188,-0.008049862459301949,0.0005576163530349731
1679068262275519200,15.076519287109376,-0.10919761657714844,0.011103743687272072,-0.009019151329994202
1679068262295478000,15.09647802734375,-0.11398601531982422,-0.0008672568947076797,-0.004230797290802002
1679068262315497200,15.116497314453126,-0.11159229278564453,0.0015269368886947632,-0.02099015563726425
1679068262335456000,15.1364560546875,-0.13074588775634766,0.027863163501024246,0.0029518157243728638
1679068262355475200,15.15647509765625,-0.12835121154785156,0.010903187096118927,-0.006595447659492493
1679068262375494100,15.176494140625,-0.11638164520263672,0.01059715449810028,0.0005971640348434448
1679068262395514000,15.19651416015625,-0.1211709976196289,-0.011075640097260475,-0.011367037892341614
1679068262415411200,15.2164111328125,-0.14032459259033203,0.0032895803451538086,-0.00657866895198822
1679068262436529200,15.237529052734375,-0.1211709976196289,0.01025724969804287,-0.008973345160484314
1679068262456488200,15.25748828125,-0.11638355255126953,0.01242469809949398,0.005414217710494995
1679068262476507100,15.277507080078125,-0.123565673828125,-0.006728915497660637,0.0030200183391571045
1679068262496527000,15.297527099609376,-0.11877727508544922,-0.004334714263677597,0.010202616453170776
1679068262516485000,15.317485107421875,-0.13314247131347656,0.02678990736603737,0.005414217710494995
1679068262536505000,15.337505126953126,-0.10441207885742188,-0.011517319828271866,0.007808417081832886
1679068262556524000,15.35752392578125,-0.09483528137207031,-0.004334714263677597,0.0006258189678192139
1679068262576422100,15.377422119140626,-0.14511394500732422,0.02678990736603737,-0.004162594676017761
1679068262596502000,15.397501953125,-0.09004688262939453,-0.023488327860832214,0.0030200183391571045
1679068262616522200,15.417522216796876,-0.13314247131347656,0.01960730366408825,0.0030200183391571045
1679068262637518000,15.43851806640625,-0.12835407257080078,0.01003049686551094,-0.008950993418693542
1679068262657476000,15.45847607421875,-0.12117195129394531,0.01721310243010521,0.007808417081832886
1679068262677496000,15.47849609375,-0.13074874877929688,0.01960730366408825,0.007808417081832886
1679068262697515000,15.498514892578125,-0.13074874877929688,-0.009123116731643677,-0.0017683804035186768
1679068262718511000,15.519510986328125,-0.13314247131347656,0.01003049686551094,-0.0017683804035186768
1679068262738470100,15.53947021484375,-0.11638355255126953,0.01242469809949398,0.007808417081832886
1679068262759527200,15.560527099609375,-0.11638355255126953,0.005242092534899712,-0.008950993418693542
1679068262780523000,15.58152294921875,-0.123565673828125,0.029184110462665558,0.0030200183391571045
1679068262800481000,15.60148095703125,-0.13793087005615234,0.01003049686551094,-0.01613359898328781
1679068262820501200,15.621501220703125,-0.11877822875976562,0.01693788170814514,-0.004144772887229919
1679068262840459000,15.641458984375,-0.13553905487060547,0.007119718007743359,-0.004139319062232971
1679068262860479200,15.661479248046875,-0.11638545989990234,-0.024004904553294182,0.007831692695617676
1679068262880498200,15.681498291015625,-0.11638545989990234,0.02148492820560932,0.005437493324279785
1679068262901494000,15.702493896484375,-0.1307506561279297,0.007119718007743359,-0.020898722112178802
1679068262921514200,15.72251416015625,-0.09723186492919922,0.011908121407032013,0.012620106339454651
1679068262941472000,15.742471923828125,-0.10920238494873047,-0.012033896520733833,-0.011321917176246643
1679068262962529000,15.763529052734375,-0.10680866241455078,-0.009639693424105644,0.0006490945816040039
1679068262982488000,15.783488037109375,-0.10680866241455078,-0.026399103924632072,0.012620106339454651
1679068263003484200,15.804484130859375,-0.0996255874633789,-0.0024570878595113754,0.0006490945816040039
1679068263024480000,15.82547998046875,-0.13793277740478516,0.03106173500418663,0.015014305710792542
1679068263044499200,15.845499267578125,-0.11877918243408203,-0.0048512909561395645,-0.013716116547584534
1679068263064519200,15.865519287109375,-0.1259622573852539,0.02627333253622055,-0.0017451047897338867
1679068263084477200,15.885477294921875,-0.0996255874633789,-0.02879330702126026,0.005437493324279785
1679068263104497200,15.9054970703125,-0.12356758117675781,0.011908121407032013,-0.004139319062232971
1679068263124516000,15.92551611328125,-0.11877727508544922,-0.02152399905025959,0.01733340322971344
1679068263144474000,15.94547412109375,-0.10201835632324219,-0.004764588549733162,0.0005739927291870117
1679068263164494000,15.965494140625,-0.12835407257080078,0.011994823813438416,-0.001820206642150879
1679068263184516000,15.98551611328125,-0.10201835632324219,0.004812218248844147,-0.009002819657325745
1679068263204474000,16.00547412109375,-0.1259603500366211,0.0383310429751873,0.0029681921005249023
1679068263224494000,16.025494140625,-0.123565673828125,0.002308545634150505,0.0005461275577545166
1679068263244513000,16.045512939453126,-0.13314247131347656,-0.00008565559983253479,-0.00903068482875824
1679068263264472000,16.06547216796875,-0.08765316009521484,-0.009662462398409843,-0.013819083571434021
1679068263284491000,16.085490966796876,-0.12835407257080078,0.009491151198744774,0.0077287256717681885
1679068263304511200,16.10551123046875,-0.12835407257080078,-0.0024798568338155746,-0.01621329039335251
1679068263324469200,16.12546923828125,-0.11877727508544922,0.016673754900693893,0.0005461275577545166
1679068263344489200,16.1454892578125,-0.0996236801147461,-0.016845067963004112,-0.01621329039335251
1679068263364508200,16.165508056640626,-0.15469074249267578,0.016673754900693893,-0.006636485457420349
1679068263384528100,16.185528076171874,-0.10201835632324219,0.004702746868133545,-0.0186074897646904
1679068263405524200,16.206524169921874,-0.11398887634277344,-0.0192392710596323,0.0077287256717681885
1679068263425482200,16.226482177734376,-0.0972299575805664,-0.02402767352759838,0.010122925043106079
1679068263445502200,16.246502197265624,-0.12117195129394531,0.023856360465288162,-0.013819083571434021
1679068263465521200,16.266521240234376,-0.10920047760009766,-0.00008565559983253479,-0.00903068482875824
1679068263488401200,16.289401123046876,-0.12117195129394531,0.03103896602988243,0.010122925043106079
1679068263516023600,16.3170234375,-0.13793087005615234,0.02864476479589939,0.0005461275577545166
1679068263536042500,16.33704248046875,-0.0732879638671875,0.014279553666710854,-0.00903068482875824
1679068263556001500,16.35700146484375,-0.10920047760009766,-0.012056665495038033,0.005334526300430298
1679068263575959600,16.37695947265625,-0.10201835632324219,-0.012056665495038033,0.010122925043106079
1679068263595718700,16.39671875,-0.0972299575805664,-0.021633470430970192,0.0077287256717681885
1679068263615614000,16.416614013671875,-0.11398887634277344,0.007096949033439159,0.005334526300430298
1679068263635449900,16.436449951171873,-0.123565673828125,0.009491151198744774,-0.0042422860860824585
1679068263655585500,16.45658544921875,-0.10201835632324219,-0.00008565559983253479,-0.006636485457420349
1679068263675544300,16.47654443359375,-0.0996236801147461,-0.014450864866375923,-0.00903068482875824
1679068263695563500,16.4965634765625,-0.0996236801147461,-0.02642187289893627,0.014911338686943054
1679068263715521500,16.516521484375,-0.1259593963623047,-0.0023614075034856796,-0.01146213710308075
1679068263735541500,16.53654150390625,-0.10201740264892578,-0.007049251347780228,-0.00188349187374115
1679068263755560400,16.556560546875,-0.10201740264892578,0.002527555450797081,0.005299106240272522
1679068263775580400,16.576580322265624,-0.1211709976196289,-0.009443452581763268,0.007693305611610413
1679068263795538400,16.596538330078126,-0.09962272644042969,-0.011837655678391457,0.005299106240272522
1679068263816534500,16.617534423828126,-0.1235647201538086,0.00971016101539135,-0.011460304260253906
1679068263836554500,16.637554443359374,-0.10919952392578125,-0.026202863082289696,-0.006671905517578125
1679068263856573400,16.657573486328126,-0.10201740264892578,-0.016626058146357536,-0.009066104888916016
1679068263876532500,16.677532470703124,-0.13553619384765625,0.007315958850085735,0.010087504982948303
1679068263897467400,16.69846728515625,-0.09244060516357422,-0.026202863082289696,-0.004277706146240234
1679068263917547500,16.718547607421876,-0.10201740264892578,0.017005249857902527,-0.02819909155368805
1679068263937567500,16.7385673828125,-0.07568073272705078,-0.016513574868440628,0.005319729447364807
1679068263957586400,16.75858642578125,-0.11877632141113281,-0.023595893755555153,-0.0018447041511535645
1679068263977545500,16.77854541015625,-0.08046913146972656,0.0075287288054823875,-0.00902731716632843
1679068263997564400,16.798564453125,-0.10201740264892578,-0.021201690658926964,-0.0018447041511535645
1679068264017584400,16.81858447265625,-0.10680580139160156,-0.023595893755555153,-0.00902731716632843
1679068264037542400,16.83854248046875,-0.11638355255126953,-0.016198253259062767,-0.01609397679567337
1679068264057562400,16.858562255859376,-0.08765506744384766,-0.006427086889743805,-0.006351083517074585
1679068264077581300,16.878581298828124,-0.1020212173461914,0.003184804692864418,-0.03257905691862106
1679068264097540400,16.898540283203126,-0.1068115234375,-0.015888972207903862,-0.010951176285743713
1679068264117559600,16.9185595703125,-0.09244728088378906,-0.010934684425592422,-0.006028100848197937
1679068264137517300,16.938517333984375,-0.1068124771118164,-0.008540481328964233,-0.0036339014768600464
1679068264159551500,16.960551513671874,-0.11399555206298828,-0.008357439190149307,-0.008334055542945862
1679068264180489500,16.981489501953124,-0.10202598571777344,-0.01768282614648342,-0.001043945550918579
1679068264200569300,17.0015693359375,-0.08047866821289062,-0.0008245818316936493,0.010985642671585083
1679068264220589300,17.02158935546875,-0.09723854064941406,-0.014942197129130363,-0.003308206796646118
1679068264240547300,17.04154736328125,-0.07569026947021484,0.009117948822677135,-0.015234626829624176
1679068264260567600,17.061567626953124,-0.07090187072753906,0.0019353441894054413,0.008707389235496521
1679068264280586500,17.08158642578125,-0.10920906066894531,0.009117948822677135,-0.010446220636367798
1679068264301582300,17.102582275390624,-0.0876617431640625,-0.026795076206326485,0.011101588606834412
1679068264322578400,17.123578369140624,-0.12118053436279297,-0.0028530601412057877,0.00631318986415863
1679068264342476500,17.1434765625,-0.09723854064941406,-0.019612470641732216,0.00391899049282074
1679068264362556400,17.163556396484374,-0.10442066192626953,-0.012429865077137947,0.018284201622009277
1679068264382576400,17.183576416015626,-0.08047771453857422,0.01879342645406723,0.0038613229990005493
1679068264402534400,17.203534423828124,-0.09963130950927734,0.0068224165588617325,0.00625552237033844
1679068264423591400,17.22459130859375,-0.09723758697509766,-0.002754390239715576,-0.008109688758850098
1679068264443549400,17.244549560546876,-0.13075637817382812,0.02358182892203331,-0.0009270757436752319
1679068264464546300,17.26554638671875,-0.08287239074707031,-0.007542792707681656,-0.0033212900161743164
1679068264484565500,17.2855654296875,-0.10681438446044922,0.0020340140908956528,-0.010503888130187988
1679068264504584400,17.30558447265625,-0.09244918823242188,-0.014725398272275925,-0.005715489387512207
1679068264524543500,17.32554345703125,-0.0876607894897461,-0.0003601871430873871,-0.008109688758850098
1679068264544562400,17.3455625,-0.12117958068847656,-0.024302203208208084,0.0014671236276626587
1679068264564582400,17.36558251953125,-0.09005451202392578,-0.009936995804309845,-0.005715489387512207
1679068264584540400,17.38554052734375,-0.09723758697509766,0.011610820889472961,0.0038613229990005493
1679068264604560400,17.405560302734376,-0.10681438446044922,-0.012331195175647736,-0.008109688758850098
1679068264624579300,17.425579345703124,-0.09723758697509766,-0.024171823635697365,0.008643090724945068
1679068264644538400,17.445538330078126,-0.09244823455810547,-0.004743706434965134,-0.005754902958869934
1679068264664557300,17.465557373046874,-0.10441875457763672,-0.011710122227668762,0.0038872212171554565
1679068264685553400,17.486553466796874,-0.10681343078613281,-0.02104366198182106,0.003906458616256714
1679068264705573400,17.506573486328126,-0.09484004974365234,0.0007418598979711533,-0.00572560727596283
1679068264726569500,17.527569580078126,-0.11399364471435547,0.02001992240548134,-0.0009525120258331299
1679068264746588400,17.54758837890625,-0.11399364471435547,0.01283731684088707,0.0014416873455047607
1679068264766547500,17.56754736328125,-0.1068115234375,-0.006316296756267548,-0.015317730605602264
1679068264786566400,17.58756640625,-0.11638832092285156,0.01283731684088707,-0.005740925669670105
1679068264806586400,17.60758642578125,-0.09962844848632812,-0.018287304788827896,-0.012923523783683777
1679068264826544400,17.62754443359375,-0.1044168472290039,-0.011104699224233627,-0.0009525120258331299
1679068264846564400,17.647564453125,-0.09723472595214844,0.012945380061864853,-0.005705013871192932
1679068264866583600,17.66758349609375,-0.10202312469482422,0.010551177896559238,-0.0033108144998550415
1679068264886542300,17.687542236328124,-0.10202312469482422,-0.013390839099884033,-0.0033108144998550415
1679068264906561500,17.7075615234375,-0.10202312469482422,-0.0014198310673236847,-0.005705013871192932
1679068264928534500,17.729534423828124,-0.12596511840820312,0.012945380061864853,-0.000916600227355957
1679068264948492500,17.749492431640626,-0.080474853515625,-0.0014198310673236847,-0.012887611985206604
1679068264969549300,17.77054931640625,-0.11159992218017578,-0.015785042196512222,-0.010493412613868713
1679068264989569500,17.790569580078124,-0.08765792846679688,-0.006208233535289764,-0.012887611985206604
1679068265009588500,17.81058837890625,-0.1068115234375,0.02012798562645912,-0.010493412613868713
1679068265029547500,17.830547607421874,-0.080474853515625,-0.010996636003255844,0.006265997886657715
1679068265049566500,17.85056640625,-0.1331472396850586,0.03449319303035736,-0.000916600227355957
1679068265069585400,17.87058544921875,-0.09723472595214844,-0.022967644035816193,0.01344861090183258
1679068265089544400,17.89054443359375,-0.09962844848632812,-0.010996636003255844,-0.0033108144998550415
1679068265109563400,17.9105634765625,-0.09244441986083984,-0.0228459183126688,0.00862760841846466
1679068265129583400,17.930583251953124,-0.1307516098022461,0.017855508252978325,0.00862760841846466
1679068265149541400,17.950541259765625,-0.09962654113769531,-0.02045171894133091,0.020598620176315308
1679068265169561300,17.970561279296874,-0.11159801483154297,-0.0012981053441762924,-0.0009491890668869019
1679068265189583400,17.990583251953126,-0.10920333862304688,0.005884500220417976,-0.005737602710723877
1679068265209541400,18.010541259765624,-0.09483814239501953,-0.0228459183126688,-0.012920200824737549
1679068265229561300,18.030561279296876,-0.09962654113769531,0.0010960977524518967,-0.012920200824737549
1679068265249580500,18.05058056640625,-0.10680961608886719,-0.0012981053441762924,-0.0009491890668869019
1679068265269539300,18.070539306640626,-0.09962654113769531,-0.01566331647336483,0.0014450103044509888
1679068265289558500,18.09055859375,-0.1259632110595703,0.015461307018995285,-0.017708607017993927
1679068265309578500,18.11057861328125,-0.1044149398803711,-0.0228459183126688,0.013416022062301636
1679068265330574300,18.13157421875,-0.09004974365234375,-0.01805751584470272,0.018204420804977417
1679068265350532400,18.151532470703124,-0.12117481231689453,-0.01305057480931282,-0.010584816336631775
1679068265370552300,18.17155224609375,-0.1307516098022461,0.010891442187130451,0.001386195421218872
1679068265390571500,18.191571533203124,-0.09962654113769531,-0.005867969244718552,-0.0010080039501190186
1679068265411506400,18.21250634765625,-0.09004974365234375,-0.010656371712684631,-0.015373222529888153
1679068265431587300,18.23258740234375,-0.09723281860351562,-0.02023318037390709,-0.010584816336631775
1679068265452400400,18.253400390625,-0.1020212173461914,-0.010656371712684631,-0.022555828094482422
1679068265473579500,18.27457958984375,-0.11399173736572266,-0.005867969244718552,-0.0010080039501190186
1679068265493537500,18.29453759765625,-0.13314533233642578,0.03483346104621887,0.001386195421218872
1679068265513557500,18.3145576171875,-0.11159801483154297,0.006103038787841797,-0.005796417593955994
1679068265533576400,18.334576416015626,-0.12835693359375,0.027650853618979454,-0.0010080039501190186
1679068265553535500,18.354535400390624,-0.10202312469482422,0.013086089864373207,-0.0032889246940612793
1679068265574592500,18.375592529296874,-0.1283588409423828,-0.0084617268294096,-0.00568312406539917
1679068265595588400,18.39658837890625,-0.0828695297241211,0.015480291098356247,0.006287887692451477
1679068265615485400,18.4164853515625,-0.11399364471435547,-0.01577121950685978,0.003898531198501587
1679068265635566300,18.43656640625,-0.1044168472290039,-0.0014060083776712418,-0.003284081816673279
1679068265655524400,18.4565244140625,-0.10202312469482422,-0.0061944108456373215,0.008686929941177368
1679068265675544300,18.47654443359375,-0.1044168472290039,-0.01816541887819767,-0.003284081816673279
1679068265695563500,18.4965634765625,-0.09962844848632812,0.012959202751517296,-0.005678281188011169
1679068265715582500,18.51658251953125,-0.11399364471435547,0.005776597186923027,-0.01046667993068695
1679068265736517400,18.537517333984376,-0.09723472595214844,-0.01337701641023159,0.0015043318271636963
1679068265757575400,18.558575439453126,-0.10920524597167969,0.024930210784077644,-0.02004348486661911
1679068265778571500,18.579571533203126,-0.09723567962646484,0.010466626845300198,0.006351754069328308
1679068265798590500,18.599590576171874,-0.15230274200439453,0.0032015815377235413,-0.0007691681385040283
1679068265818549500,18.619549560546876,-0.12357234954833984,-0.013557825237512589,-0.007951781153678894
1679068265838568400,18.639568359375,-0.12357234954833984,0.027143603190779686,0.0016250312328338623
1679068265858587400,18.65958740234375,-0.11639022827148438,0.019960999488830566,-0.0007691681385040283
1679068265878546400,18.67954638671875,-0.10441875457763672,-0.008769422769546509,0.0016250312328338623
1679068265898565400,18.6995654296875,-0.1116018295288086,-0.008769422769546509,0.011201828718185425
1679068265919561500,18.7205615234375,-0.10681343078613281,-0.023134630173444748,0.0064134299755096436
1679068265939581400,18.74058154296875,-0.12596702575683594,0.003201587125658989,-0.015134386718273163
1679068265959539500,18.76053955078125,-0.11639022827148438,-0.00398101843893528,0.008807629346847534
1679068265979498500,18.78049853515625,-0.12836074829101562,0.005595788359642029,-0.012740179896354675
1679068265999578400,18.800578369140624,-0.09963035583496094,-0.0111636221408844,-0.010345980525016785
1679068266019537400,18.820537353515626,-0.1092071533203125,0.0008073858916759491,-0.005557581782341003
1679068266039556400,18.840556396484374,-0.12596702575683594,0.0008073858916759491,-0.005557581782341003
1679068266059576300,18.860576416015626,-0.09244823455810547,0.010384191758930683,0.0159902423620224
1679068266079534300,18.880534423828124,-0.12596702575683594,0.0008073858916759491,0.0159902423620224
1679068266099554300,18.90055419921875,-0.09723663330078125,-0.020740430802106857,0.0064134299755096436
1679068266119573500,18.920573486328124,-0.12596702575683594,0.027143603190779686,0.0064134299755096436
1679068266139532500,18.940532470703126,-0.12117862701416016,-0.018346227705478668,-0.0007691681385040283
1679068266159490300,18.960490234375,-0.09484195709228516,-0.018346227705478668,-0.005557581782341003
1679068266180489500,18.981489501953124,-0.12836074829101562,0.017566796392202377,-0.003163382411003113
1679068266200569300,19.0015693359375,-0.09723663330078125,-0.0111636221408844,0.004019230604171753
1679068266221565400,19.0225654296875,-0.11639022827148438,0.027143603190779686,0.008807629346847534
1679068266241585400,19.04258544921875,-0.10681343078613281,-0.00158681720495224,0.0064134299755096436
1679068266261543400,19.06254345703125,-0.11639022827148438,0.015172595158219337,-0.003163382411003113
1679068266281563400,19.0825634765625,-0.1331491470336914,0.003201587125658989,0.0016250312328338623
1679068266301582300,19.102582275390624,-0.12836074829101562,0.022355200722813606,0.01359604299068451
1679068266321541400,19.122541259765626,-0.12836074829101562,0.015172595158219337,0.0016250312328338623
1679068266341499400,19.14249951171875,-0.10441875457763672,0.005340429022908211,-0.005678102374076843
1679068266361579500,19.16257958984375,-0.1116018295288086,0.0005520228296518326,-0.008072271943092346
1679068266381538300,19.182538330078124,-0.1116018295288086,0.007734630256891251,0.008687108755111694
1679068266401557500,19.2025576171875,-0.12596702575683594,0.01731143333017826,-0.008072271943092346
1679068266421577500,19.222577392578124,-0.12836074829101562,0.01705760881304741,-0.012854859232902527
1679068266442573300,19.2435732421875,-0.12357330322265625,0.012020144611597061,-0.003264099359512329
1679068266462531300,19.26353125,-0.11878490447998047,-0.007133468985557556,0.015889525413513184
1679068266482551600,19.283551513671874,-0.10441970825195312,-0.011921871453523636,0.008706912398338318
1679068266503547400,19.30454736328125,-0.09244918823242188,-0.023892879486083984,-0.0008698850870132446
1679068266523505400,19.32450537109375,-0.1331501007080078,0.01680854707956314,0.001524314284324646
1679068266543586300,19.34458642578125,-0.1092081069946289,0.02159695141017437,0.011101111769676208
1679068266563544300,19.36454443359375,-0.11639118194580078,0.014414345845580101,0.013495326042175293
1679068266583564500,19.384564453125,-0.12357330322265625,-0.004739267751574516,-0.01523510366678238
1679068266603583500,19.40458349609375,-0.11639118194580078,0.004837539047002792,0.015889525413513184
1679068266623542500,19.42454248046875,-0.11639118194580078,-0.004739267751574516,-0.0008698850870132446
1679068266643500500,19.44450048828125,-0.111602783203125,-0.011921871453523636,0.008706912398338318
1679068266663581400,19.46458154296875,-0.12117958068847656,0.009625942446291447,-0.003264099359512329
1679068266683539500,19.48453955078125,-0.09723758697509766,-0.019104477018117905,0.011101111769676208
1679068266703559400,19.504559326171876,-0.14990997314453125,0.012020144611597061,-0.003264099359512329
1679068266724555500,19.525555419921876,-0.10681438446044922,-0.014316074550151825,0.018283724784851074
1679068266746588400,19.54758837890625,-0.12836170196533203,0.03117375820875168,0.003918513655662537
1679068266766547500,19.56754736328125,-0.09723758697509766,-0.021498680114746094,0.025466322898864746
1679068266787543600,19.58854345703125,-0.11399555206298828,0.009614727459847927,-0.0033663660287857056
1679068266807562500,19.6085625,-0.10681343078613281,-0.016721492633223534,0.006210446357727051
1679068266827582500,19.62858251953125,-0.10441875457763672,-0.007144683972001076,0.0014220476150512695
1679068266847540500,19.64854052734375,-0.13075542449951172,0.03834514692425728,0.006210446357727051
1679068266867560400,19.668560546875,-0.12357044219970703,-0.0001606140285730362,-0.003492876887321472
1679068266887579400,19.688579345703126,-0.11638832092285156,0.0046277884393930435,0.001295536756515503
1679068266907538400,19.708538330078124,-0.1283578872680664,0.018914762884378433,-0.01792491227388382
1679068266927557400,19.728557373046876,-0.11399364471435547,-0.024296043440699577,-0.005962803959846497
1679068266947515400,19.748515380859374,-0.1331472396850586,0.009222778491675854,0.017979219555854797
1679068266967535400,19.768535400390626,-0.11638832092285156,-0.007536632940173149,-0.017933808267116547
1679068266987554300,19.78855419921875,-0.14751243591308594,0.025982189923524857,0.00600820779800415
1679068267007574500,19.808574462890626,-0.11638832092285156,-0.014719238504767418,0.008402407169342041
1679068267028570400,19.8295703125,-0.10202312469482422,-0.019507640972733498,0.0036140084266662598
1679068267049566500,19.85056640625,-0.12117671966552734,0.011616980656981468,-0.0011743903160095215
1679068267069585400,19.87058544921875,-0.12357044219970703,0.016405383124947548,0.0012198090553283691
1679068267089544400,19.89054443359375,-0.10920524597167969,-0.0003540273755788803,-0.0011743903160095215
1679068267109563400,19.9105634765625,-0.10920524597167969,0.011616980656981468,-0.008357003331184387
1679068267129583400,19.930583251953124,-0.1044168472290039,-0.014719238504767418,0.00600820779800415
1679068267149541400,19.950541259765625,-0.12596511840820312,0.004434375092387199,0.013190820813179016
1679068267169561300,19.970561279296874,-0.09244632720947266,0.004434375092387199,-0.022722214460372925
1679068267190559500,19.9915595703125,-0.12357044219970703,0.025982189923524857,-0.010751202702522278
1679068267210579500,20.011579345703126,-0.09962844848632812,-0.007536632940173149,-0.008357003331184387
1679068267230537500,20.031537353515624,-0.14033031463623047,0.018799584358930588,0.0012198090553283691
1679068267252678100,20.05367822265625,-0.10202312469482422,0.016405383124947548,0.020373418927192688
1679068267281613800,20.08261376953125,-0.1068115234375,0.004434375092387199,-0.008357003331184387
1679068267301632800,20.1026328125,-0.1283588409423828,0.014011181890964508,0.0012198090553283691
1679068267321576400,20.122576416015626,-0.10202217102050781,-0.019611097872257233,-0.008405998349189758
1679068267341587200,20.142587158203124,-0.11878108978271484,-0.012428492307662964,0.005959212779998779
1679068267361592300,20.16259228515625,-0.1044158935546875,-0.005245888605713844,-0.01319439709186554
1679068267381503200,20.182503173828124,-0.13554096221923828,-0.005245888605713844,0.001170814037322998
1679068267401522200,20.202522216796876,-0.12117576599121094,-0.017216898500919342,0.00835341215133667
1679068267421542100,20.222542236328124,-0.11638736724853516,-0.022005300968885422,0.0035650134086608887
1679068267441439200,20.242439208984376,-0.11159896850585938,0.021090330556035042,0.00835341215133667
1679068267462496300,20.263496337890626,-0.13793468475341797,0.02348453179001808,0.015536025166511536
1679068267482516200,20.28351611328125,-0.09962749481201172,-0.010034292936325073,-0.006011798977851868
1679068267502535200,20.30353515625,-0.12596416473388672,0.016301926225423813,-0.008405998349189758
1679068267523531300,20.32453125,-0.12356948852539062,-0.014822695404291153,-0.0012233853340148926
1679068267544527000,20.345527099609374,-0.11399269104003906,-0.010034292936325073,-0.0012233853340148926
1679068267564547300,20.36554736328125,-0.1283578872680664,-0.012428492307662964,0.001170814037322998
1679068267585543200,20.386543212890626,-0.1068105697631836,-0.019611097872257233,0.001170814037322998
1679068267605379300,20.40637939453125,-0.11159896850585938,0.016301926225423813,0.01074761152267456
1679068267625521200,20.426521240234376,-0.1283578872680664,-0.0028516873717308044,0.013141825795173645
1679068267645540400,20.446540283203124,-0.1331462860107422,0.011513523757457733,-0.006011798977851868
1679068267665499100,20.4664990234375,-0.09962749481201172,-0.005245888605713844,-0.008405998349189758
1679068267685518300,20.486518310546874,-0.11638736724853516,0.011513523757457733,0.0035650134086608887
1679068267705533200,20.506533203125,-0.1307525634765625,0.02587873302400112,0.0035650134086608887
1679068267725469400,20.526469482421874,-0.08286857604980469,-0.0028516873717308044,-0.0012233853340148926
1679068267745489400,20.546489501953126,-0.11638736724853516,0.004218047484755516,0.005947232246398926
1679068267765508400,20.56650830078125,-0.1307525634765625,0.0018238462507724762,-0.010812178254127502
1679068267785528300,20.5865283203125,-0.09723377227783203,-0.014935566112399101,-0.008417978882789612
1679068267805478400,20.606478515625,-0.11159896850585938,-0.0077529605478048325,-0.001235365867614746
1679068267825498400,20.626498291015626,-0.11159896850585938,0.004218047484755516,-0.006023779511451721
1679068267845517300,20.646517333984374,-0.12117576599121094,0.00900645088404417,-0.01560058444738388
1679068267865475300,20.666475341796875,-0.1044158935546875,-0.01972396858036518,0.008341431617736816
1679068267885495300,20.686495361328124,-0.12117576599121094,0.025765862315893173,-0.006023779511451721
1679068267905514500,20.706514404296875,-0.1283578872680664,-0.0077529605478048325,-0.008417978882789612
1679068267925473500,20.7264736328125,-0.12596416473388672,0.028160065412521362,0.010735630989074707
1679068267945492500,20.746492431640625,-0.1068105697631836,-0.0005703549832105637,-0.0036295801401138306
1679068267965512400,20.766512451171874,-0.1044158935546875,0.006612248718738556,0.008341431617736816
1679068267985470500,20.786470458984375,-0.12596416473388672,0.016189055517315865,-0.010812178254127502
1679068268005490400,20.806490478515624,-0.12117576599121094,-0.012541363015770912,-0.006023779511451721
1679068268026486500,20.827486572265624,-0.09005069732666016,-0.0005703549832105637,-0.02517738938331604
1679068268046505500,20.84750537109375,-0.12117576599121094,0.016189055517315865,0.0011588335037231445
1679068268066464500,20.867464599609374,-0.09005165100097656,0.0017142295837402344,-0.017965368926525116
1679068268086483500,20.8874833984375,-0.12357044219970703,-0.017439385876059532,-0.013176962733268738
1679068268106503400,20.90750341796875,-0.12117671966552734,0.02326204441487789,0.0035824477672576904
1679068268126461400,20.92746142578125,-0.09723567962646484,0.02062445878982544,0.00836905837059021
1679068268146481400,20.9474814453125,-0.1307544708251953,0.0014708451926708221,0.0035806596279144287
1679068268166500400,20.967500244140624,-0.11638832092285156,-0.024976545944809914,0.003556579351425171
1679068268186461400,20.98746142578125,-0.1355419158935547,0.03009009175002575,0.003556579351425171
1679068268207518500,21.0085185546875,-0.10202312469482422,-0.0034287329763174057,-0.010808631777763367
1679068268227477500,21.0284775390625,-0.12357044219970703,0.006148073822259903,-0.008414432406425476
1679068268247496400,21.048496337890626,-0.11399364471435547,-0.0010345298796892166,-0.008414432406425476
1679068268267455500,21.06845556640625,-0.1355419158935547,0.01811908185482025,-0.003626033663749695
1679068268288512500,21.089512451171874,-0.10920524597167969,-0.013005537912249565,-0.015597037971019745
1679068268309508400,21.11050830078125,-0.1068115234375,0.01572488062083721,0.0203159898519516
1679068268329466400,21.13046630859375,-0.11399364471435547,-0.0034287329763174057,-0.0012318193912506104
1679068268349486300,21.150486328125,-0.09723472595214844,0.008542275987565517,-0.010808631777763367
1679068268369505500,21.170505615234376,-0.1307535171508789,-0.0058229342103004456,0.008344978094100952
1679068268389464300,21.19046435546875,-0.08526325225830078,0.003753872588276863,-0.017991237342357635
1679068268409483500,21.2104833984375,-0.14033031463623047,0.01811908185482025,-0.010808631777763367
1679068268429502500,21.23050244140625,-0.07089805603027344,-0.0010345298796892166,-0.017991237342357635
1679068268449461500,21.25046142578125,-0.14272403717041016,0.02530168741941452,-0.0060202330350875854
1679068268469480400,21.27048046875,-0.0828695297241211,0.01572488062083721,0.0011623799800872803
1679068268489439500,21.290439453125,-0.09963035583496094,0.025022422894835472,0.013148993253707886
1679068268509519400,21.310519287109376,-0.1594858169555664,0.019968779757618904,-0.0012054294347763062
1679068268529478400,21.330478515625,-0.06611156463623047,0.0053672995418310165,-0.013188108801841736
1679068268549497300,21.350497314453126,-0.14272689819335938,0.029170885682106018,0.010732278227806091
1679068268569456400,21.370456298828124,-0.08287239074707031,0.007623069919645786,-0.008421331644058228
1679068268589475300,21.390475341796876,-0.1116018295288086,0.009922154247760773,0.0011221617460250854
1679068268609495300,21.410495361328124,-0.14033222198486328,0.005133749917149544,-0.01563725620508194
1679068268629514500,21.430514404296876,-0.07090091705322266,0.024162765592336655,0.01308964192867279
1679068268649473500,21.4504736328125,-0.1618804931640625,-0.02372126840054989,-0.001275569200515747
1679068268669492500,21.470492431640626,-0.10681438446044922,-0.01414445973932743,-0.001275569200515747
1679068268691465500,21.492465576171874,-0.09963130950927734,-0.0213270653039217,-0.001275569200515747
1679068268713498400,21.514498291015624,-0.13075637817382812,0.021768564358353615,0.005907028913497925
1679068268735471400,21.536471435546876,-0.14272689819335938,0.007403354160487652,-0.020429186522960663
1679068268756467500,21.557467529296876,-0.03977680206298828,-0.004567654803395271,0.022666439414024353
1679068268776486400,21.577486328125,-0.12357234954833984,0.03125246614217758,0.013042151927947998
1679068268796506400,21.59750634765625,-0.1355438232421875,0.0144930649548769,-0.018082506954669952
1679068268817502500,21.61850244140625,-0.07568836212158203,0.019281459972262383,0.008253738284111023
1679068268838498300,21.639498291015624,-0.1331491470336914,0.01688726618885994,-0.010899901390075684
1679068268860471300,21.66147119140625,-0.09005355834960938,0.007310451008379459,-0.008505672216415405
1679068268880490500,21.681490478515624,-0.08047676086425781,0.002522056922316551,0.010647907853126526
1679068268900510500,21.701510498046876,-0.09244823455810547,-0.019025769084692,0.02261894941329956
1679068268920468500,21.721468505859374,-0.09005260467529297,0.012189729139208794,0.003373384475708008
1679068268941464300,21.74246435546875,-0.1068124771118164,0.002612922340631485,-0.00859762728214264
1679068268961484500,21.762484619140626,-0.1068124771118164,0.00021872110664844513,-0.00859762728214264
1679068268982480400,21.78348046875,-0.06611061096191406,0.002612922340631485,-0.0062034279108047485
1679068269002499300,21.803499267578125,-0.12596607208251953,0.03613174706697464,0.003373384475708008
1679068269022519300,21.823519287109374,-0.11160087585449219,-0.016540691256523132,0.0057675838470458984
1679068269042416400,21.84341650390625,-0.09723567962646484,0.005007123574614525,-0.032539643347263336
1679068269063412500,21.86441259765625,-0.08765888214111328,-0.006963884457945824,-0.0062034279108047485
1679068269083492400,21.884492431640624,-0.09244728088378906,-0.03090590238571167,0.003373384475708008
1679068269103451400,21.904451416015625,-0.09962940216064453,-0.009358085691928864,0.003373384475708008
1679068269124508400,21.92550830078125,-0.12357139587402344,0.00021872110664844513,0.0009791851043701172
1679068269144466400,21.945466552734374,-0.11399459838867188,0.012189729139208794,0.0057675838470458984
1679068269164486400,21.965486328125,-0.09962940216064453,-0.016540691256523132,-0.00859762728214264
1679068269184508400,21.98550830078125,-0.11878299713134766,0.02894914150238037,0.015344396233558655
1679068269204466400,22.005466552734376,-0.11638927459716797,-0.016540691256523132,0.0009791851043701172
1679068269224486400,22.025486328125,-0.08526420593261719,0.005007123574614525,0.003373384475708008
1679068269244505300,22.04550537109375,-0.11878299713134766,-0.009358085691928864,-0.022962838411331177
1679068269264464400,22.06546435546875,-0.06850528717041016,-0.014146488159894943,0.0009791851043701172
1679068269284239400,22.0852392578125,-0.1092061996459961,-0.0237232968211174,0.0057675838470458984
1679068269304503300,22.10550341796875,-0.08765888214111328,-0.0021754801273345947,-0.003809228539466858
1679068269324461300,22.12546142578125,-0.09962940216064453,0.00021872110664844513,0.0009791851043701172
1679068269344481500,22.1454814453125,-0.058928489685058594,0.026554938405752182,0.024921193718910217
1679068269365477400,22.166477294921876,-0.1068124771118164,0.002612922340631485,-0.01099182665348053
1679068269385496300,22.186496337890624,-0.12117767333984375,-0.011752288788557053,0.003373384475708008
1679068269406492400,22.207492431640624,-0.06611061096191406,-0.026117496192455292,0.003373384475708008
1679068269426512400,22.227512451171876,-0.133148193359375,0.007401325739920139,0.008161783218383789
1679068269446470400,22.247470458984374,-0.06611061096191406,0.012189729139208794,-0.01099182665348053
1679068269466429400,22.267429443359376,-0.1307544708251953,0.014583930373191833,0.027315393090248108
1679068269486509300,22.28750927734375,-0.09005260467529297,0.002612922340631485,0.003373384475708008
1679068269507505400,22.30850537109375,-0.09723377227783203,-0.02603389136493206,0.02484254539012909
1679068269527464400,22.32846435546875,-0.07329177856445312,0.03621535003185272,-0.0014936625957489014
1679068269547483400,22.3484833984375,-0.09723281860351562,0.02894889935851097,0.010418623685836792
1679068269568479500,22.3694794921875,-0.08526134490966797,0.0025320127606391907,0.0007787495851516724
1679068269590513400,22.391513427734374,-0.08765506744384766,-0.01909978874027729,-0.01604006439447403
1679068269610471400,22.411471435546876,-0.14272117614746094,0.00723643135279417,0.0007193535566329956
1679068269631467500,22.432467529296876,-0.08526039123535156,-0.0167055856436491,-0.01843426376581192
1679068269651487500,22.452487548828124,-0.09004878997802734,-0.02628239057958126,-0.00646325945854187
1679068269671445500,22.472445556640626,-0.09244346618652344,-0.02388819120824337,0.007901951670646667
1679068269691465500,22.492465576171874,-0.102020263671875,0.012024834752082825,-0.0040690600872039795
1679068269712461300,22.51346142578125,-0.1283559799194336,-0.004734577611088753,-0.001674845814704895
1679068269734494500,22.535494384765624,-0.0996255874633789,-0.004734577611088753,0.005507752299308777
1679068269754514400,22.555514404296876,-0.08286666870117188,-0.01909978874027729,0.0007193535566329956
1679068269775510500,22.576510498046876,-0.14750957489013672,-0.0023403745144605637,0.0031135529279708862
1679068269795468500,22.596468505859374,-0.07568359375,0.00723643135279417,0.0007193535566329956
1679068269815488500,22.616488525390626,-0.10920238494873047,-0.014311382547020912,-0.00885745882987976
1679068269835507500,22.636507568359374,-0.09004878997802734,-0.02628239057958126,0.019872963428497314
1679068269855466500,22.656466552734376,-0.11638545989990234,-0.0167055856436491,-0.0040690600872039795
1679068269875485400,22.6764853515625,-0.08047199249267578,-0.026179971173405647,0.010286927223205566
1679068269895505400,22.69650537109375,-0.09723186492919922,0.012127254158258438,-0.004078283905982971
1679068269915463400,22.71646337890625,-0.10680866241455078,-0.009420560672879219,0.0031043291091918945
1679068269935422500,22.73642236328125,-0.07089519500732422,-0.011814763769507408,0.005498528480529785
1679068269955502300,22.75650244140625,-0.102020263671875,-0.026051321998238564,-0.00410105288028717
1679068269976498400,22.77749853515625,-0.10201835632324219,-0.02574208192527294,0.010210484266281128
1679068269997494500,22.79849462890625,-0.11398696899414062,-0.025410348549485207,-0.006586611270904541
1679068270018490400,22.819490478515625,-0.1187753677368164,0.001226775348186493,-0.016156084835529327
1679068270038510300,22.83951025390625,-0.10441017150878906,-0.005848530679941177,-0.004144608974456787
1679068270059506400,22.86050634765625,-0.10919857025146484,0.006122477352619171,0.005432203412055969
1679068270079281400,22.880281494140625,-0.12835216522216797,-0.005848530679941177,0.005432203412055969
1679068270099484400,22.900484375,-0.09004497528076172,-0.017819540575146675,0.000643804669380188
1679068270119503400,22.92050341796875,-0.09962177276611328,-0.024887876585125923,0.0006565451622009277
1679068270139278300,22.9402783203125,-0.1211709976196289,-0.005497990176081657,-0.004077628254890442
1679068270160519400,22.96151953125,-0.10680580139160156,0.001794109120965004,0.0031411349773406982
1679068270180480500,22.98148046875,-0.11638259887695312,-0.017124338075518608,0.0008032321929931641
1679068270200499500,23.00149951171875,-0.1235647201538086,0.004423469305038452,0.007985860109329224
1679068270221434400,23.022434326171876,-0.1235647201538086,0.006817679852247238,0.007985830307006836
1679068270241515500,23.042515625,-0.09722900390625,-0.019518546760082245,0.007985860109329224
1679068270262511400,23.063511474609374,-0.10201740264892578,0.014000285416841507,-0.013561978936195374
1679068270282469400,23.083469482421876,-0.13792991638183594,0.009211872704327106,-0.011167749762535095
1679068270303465500,23.104465576171876,-0.09722900390625,-0.02430693991482258,-0.003985181450843811
1679068270323485400,23.1244853515625,-0.13792991638183594,-0.0051533374935388565,0.0008032619953155518
1679068270343504400,23.14450439453125,-0.10919952392578125,-0.00994173251092434,0.0031974315643310547
1679068270363463400,23.16446337890625,-0.1259593963623047,-0.009941741824150085,-0.013561949133872986
1679068270383482400,23.184482421875,-0.1211709976196289,-0.0195185374468565,0.012774243950843811
1679068270403502300,23.20450244140625,-0.10680484771728516,0.011707751080393791,-0.016008980572223663
1679068270423521500,23.224521484375,-0.12356376647949219,0.023678768426179886,0.012721419334411621
1679068270443479300,23.244479248046876,-0.09004497528076172,-0.026599476113915443,0.010327234864234924
1679068270463499500,23.26449951171875,-0.09962177276611328,-0.0026574507355690002,-0.0016437917947769165
1679068270483518500,23.2845185546875,-0.11638164520263672,-0.019416870549321175,0.012721449136734009
1679068270503477500,23.3044775390625,-0.08525657653808594,-0.00505165196955204,-0.0279800146818161
1679068270523496400,23.324496337890626,-0.12595844268798828,0.0212845578789711,-0.013614773750305176
1679068270543516400,23.344516357421874,-0.08525657653808594,-0.01941686123609543,0.012721419334411621
1679068270563413500,23.36441357421875,-0.13314056396484375,0.03325556591153145,-0.006432175636291504
1679068270583494400,23.384494384765624,-0.08525657653808594,0.018890365958213806,0.010327205061912537
1679068270603513300,23.404513427734376,-0.12356376647949219,0.006919346749782562,-0.023191586136817932
1679068270623472400,23.424472412109374,-0.10441017150878906,-0.009840056300163269,-0.004038006067276001
1679068270644468500,23.445468505859374,-0.1211700439453125,-0.0026574600487947464,-0.016008980572223663
1679068270664487400,23.4654873046875,-0.10201644897460938,-0.021811064332723618,0.0007504075765609741
1679068270684507400,23.48550732421875,-0.09004402160644531,-0.019325237721204758,0.010284096002578735
1679068270704465400,23.50546533203125,-0.10201454162597656,0.007119134068489075,-0.01608661562204361
1679068270724485400,23.5254853515625,-0.10201454162597656,-0.007246075198054314,0.015038013458251953
1679068270744504300,23.54550439453125,-0.09961986541748047,-0.019217083230614662,-0.001721397042274475
1679068270765500400,23.56650048828125,-0.11398506164550781,0.004724932834506035,0.0006728023290634155
1679068270787473400,23.588473388671876,-0.09722614288330078,-0.024005485698580742,0.017432212829589844
1679068270807492400,23.608492431640624,-0.12116813659667969,0.011907538399100304,0.005461201071739197
1679068270827512300,23.62851220703125,-0.09722614288330078,-0.012034477666020393,-0.001721397042274475
1679068270847409400,23.648409423828124,-0.12835025787353516,0.026272747665643692,-0.00411561131477356
1679068270868405500,23.669405517578124,-0.10919666290283203,-0.002457672730088234,-0.01608661562204361
1679068270888486400,23.689486328125,-0.12116813659667969,0.004724932834506035,-0.00411561131477356
1679068270908444400,23.7094443359375,-0.11398506164550781,-0.019217083230614662,0.0006728023290634155
1679068270928464400,23.72946435546875,-0.10201454162597656,0.002330731600522995,0.005461201071739197
1679068270948483300,23.7494833984375,-0.12835025787353516,0.004724932834506035,-0.00411561131477356
1679068270969151200,23.770151123046876,-0.10680294036865234,-0.014428680762648582,-0.00411561131477356
1679068270988868600,23.78986865234375,-0.12835025787353516,-0.012034477666020393,0.003067001700401306
1679068271008875500,23.80987548828125,-0.0900430679321289,-0.012034477666020393,0.0006728023290634155
1679068271028700700,23.82970068359375,-0.12356185913085938,0.03106115199625492,0.010249599814414978
1679068271048720000,23.849719970703124,-0.1187734603881836,0.00951333623379469,0.0006728023290634155
1679068271069715700,23.8707158203125,-0.13553333282470703,-0.009640278294682503,-0.001721397042274475
1679068271090712800,23.891712890625,-0.11398506164550781,0.021484345197677612,0.015038013458251953
1679068271110670800,23.9116708984375,-0.13074493408203125,-0.002457672730088234,-0.011298209428787231
1679068271131602200,23.932602294921875,-0.10201454162597656,-0.00006346963346004486,0.003067001700401306
1679068271151621000,23.95262109375,-0.13792705535888672,-0.002457672730088234,0.003067001700401306
1679068271171580200,23.972580078125,-0.10680294036865234,-0.01682288385927677,-0.013692408800125122
1679068271191602200,23.992602294921873,-0.11159133911132812,0.026272747665643692,0.015038013458251953
1679068271211621000,24.01262109375,-0.10919666290283203,-0.00006346963346004486,-0.001721397042274475
1679068271232617200,24.0336171875,-0.10919666290283203,-0.004851873964071274,-0.01608661562204361
1679068271252637200,24.05363720703125,-0.13553333282470703,0.026272747665643692,-0.001721397042274475
1679068271273633000,24.074633056640625,-0.10440826416015625,-0.019217083230614662,-0.013692408800125122
1679068271293652200,24.09465234375,-0.10680294036865234,0.004724932834506035,-0.011298209428787231
