time,seconds_elapsed,z,y,x
1679068247609296600,0.410296630859375,-0.001832595793530345,0,-0.0024434609804302454
1679068247629316600,0.430316650390625,0.001832595793530345,0.001832595793530345,-0.0024434609804302454
1679068247649335600,0.45033544921875,0.0024434609804302454,-0.0012217304902151227,0
1679068247669294600,0.470294677734375,0.005497787147760391,-0.0012217304902151227,-0.00427605677396059
1679068247689313500,0.4903134765625,-0.0012217304902151227,0,-0.0006108652451075613
1679068247710309600,0.5113095703125,-0.0006108652451075613,0.001832595793530345,0.00366519158706069
1679068247730329600,0.53132958984375,0.003054326167330146,0.00427605677396059,-0.004886921960860491
1679068247750287600,0.55128759765625,0.00366519158706069,0.00366519158706069,-0.00366519158706069
1679068247770306600,0.571306640625,0.003054326167330146,0.003054326167330146,0.00427605677396059
1679068247790326500,0.591326416015625,0.0024434609804302454,0.004886921960860491,-0.0024434609804302454
1679068247810284500,0.611284423828125,0.0024434609804302454,0.007941247895359993,-0.005497787147760391
1679068247830304500,0.631304443359375,0.0006108652451075613,0.0006108652451075613,-0.0024434609804302454
1679068247850323500,0.651323486328125,0.0012217304902151227,0.001832595793530345,-0.00427605677396059
1679068247871319600,0.672319580078125,0.00427605677396059,0.004886921960860491,-0.005497787147760391
1679068247892315400,0.6933154296875,0,-0.0012217304902151227,-0.00427605677396059
1679068247912335600,0.713335693359375,-0.0006108652451075613,0.006108652334660292,-0.001832595793530345
1679068247932293600,0.733293701171875,-0.00366519158706069,0.006719517521560192,0.0012217304902151227
1679068247953289500,0.75428955078125,0,0,-0.003054326167330146
1679068247974285600,0.77528564453125,0.0006108652451075613,0.0012217304902151227,0
1679068247994305500,0.795305419921875,0.0024434609804302454,0.00733038317412138,-0.0024434609804302454
1679068248014324500,0.815324462890625,0.0006108652451075613,0.0024434609804302454,-0.0012217304902151227
1679068248035320600,0.836320556640625,0.005497787147760391,0.004886921960860491,-0.0024434609804302454
1679068248056316400,0.85731640625,0.0024434609804302454,0.006108652334660292,-0.0024434609804302454
1679068248076336600,0.877336669921875,0.004886921960860491,0.0024434609804302454,-0.003054326167330146
1679068248096294400,0.89729443359375,0.003054326167330146,0.005497787147760391,-0.003054326167330146
1679068248117290500,0.91829052734375,0.001832595793530345,0.0012217304902151227,-0.00427605677396059
1679068248138286600,0.93928662109375,0.0006108652451075613,0,-0.005497787147760391
1679068248158306600,0.959306640625,0.00366519158706069,0.006719517521560192,-0.0012217304902151227
1679068248178328600,0.97932861328125,0.003054326167330146,-0.00366519158706069,0.0006108652451075613
1679068248198225400,0.999225341796875,0.003054326167330146,0.009162978269159794,0
1679068248218306600,1.019306640625,-0.0006108652451075613,-0.0024434609804302454,0.004886921960860491
1679068248240340500,1.041340576171875,0.0024434609804302454,0.00427605677396059,-0.003054326167330146
1679068248260298500,1.061298583984375,0.00427605677396059,-0.00366519158706069,-0.005497787147760391
1679068248280317400,1.0813173828125,0.0006108652451075613,0.001832595793530345,0.0006108652451075613
1679068248300337400,1.10133740234375,0.0006108652451075613,0.001832595793530345,0.001832595793530345
1679068248320295400,1.12129541015625,0.005497787147760391,0,-0.0012217304902151227
1679068248340315400,1.1413154296875,0.004886921960860491,0.009773843921720982,-0.0024434609804302454
1679068248361311500,1.1623115234375,0.001832595793530345,0.004886921960860491,-0.00733038317412138
1679068248381330400,1.182330322265625,0.0006108652451075613,0.001832595793530345,-0.00366519158706069
1679068248402326500,1.203326416015625,0.00427605677396059,0.0012217304902151227,-0.005497787147760391
1679068248422285600,1.22328564453125,0.00366519158706069,0.004886921960860491,-0.005497787147760391
1679068248442304500,1.243304443359375,0.0012217304902151227,0.0006108652451075613,-0.001832595793530345
1679068248462324500,1.263324462890625,0,0,-0.0006108652451075613
1679068248483320600,1.284320556640625,-0.0012217304902151227,-0.003054326167330146,-0.0006108652451075613
1679068248504316400,1.30531640625,0.0024434609804302454,0.0012217304902151227,-0.0012217304902151227
1679068248526289400,1.327289306640625,0,-0.0012217304902151227,0.00427605677396059
1679068248546308600,1.34730859375,-0.0024434609804302454,-0.0024434609804302454,-0.0024434609804302454
1679068248567304400,1.368304443359375,0.0006108652451075613,0.006108652334660292,0.0006108652451075613
1679068248587324400,1.388324462890625,0.0012217304902151227,0,-0.0006108652451075613
1679068248609296600,1.410296630859375,-0.0024434609804302454,-0.0012217304902151227,-0.003054326167330146
1679068248629316600,1.430316650390625,0.0012217304902151227,-0.0012217304902151227,-0.0012217304902151227
1679068248649335600,1.45033544921875,-0.001832595793530345,-0.0012217304902151227,-0.0012217304902151227
1679068248669294600,1.470294677734375,-0.001832595793530345,-0.0024434609804302454,-0.0006108652451075613
1679068248689313500,1.4903134765625,-0.0006108652451075613,0.0024434609804302454,-0.0024434609804302454
1679068248709332500,1.51033251953125,-0.0012217304902151227,0.0024434609804302454,-0.0006108652451075613
1679068248729291500,1.53029150390625,0.0006108652451075613,-0.0006108652451075613,-0.0012217304902151227
1679068248749310500,1.550310546875,0.006108652334660292,-0.001832595793530345,0.0006108652451075613
1679068248769330400,1.570330322265625,0,-0.004886921960860491,0.0006108652451075613
1679068248789105400,1.59010546875,-0.0006108652451075613,-0.00366519158706069,-0.003054326167330146
1679068248809308400,1.610308349609375,0.0006108652451075613,-0.0006108652451075613,0.0006108652451075613
1679068248830304500,1.631304443359375,0.00427605677396059,0.0024434609804302454,-0.001832595793530345
1679068248850323500,1.651323486328125,0,0.00366519158706069,0.0012217304902151227
1679068248870282500,1.671282470703125,0.003054326167330146,-0.0012217304902151227,-0.0024434609804302454
1679068248890301400,1.691301513671875,-0.0012217304902151227,-0.005497787147760391,0.003054326167330146
1679068248910260500,1.711260498046875,-0.006719517521560192,-0.0006108652451075613,0.004886921960860491
1679068248930340600,1.731340576171875,0.0006108652451075613,-0.0006108652451075613,-0.00366519158706069
1679068248950299400,1.75129931640625,-0.001832595793530345,-0.006108652334660292,0.0012217304902151227
1679068248970318600,1.771318603515625,-0.0024434609804302454,-0.0012217304902151227,-0.0006108652451075613
1679068248990338600,1.791338623046875,-0.005497787147760391,-0.001832595793530345,0.005497787147760391
1679068249011151600,1.812151611328125,-0.003054326167330146,-0.00427605677396059,0.0024434609804302454
1679068249031292400,1.83229248046875,-0.0012217304902151227,-0.003054326167330146,-0.004886921960860491
1679068249051312600,1.852312744140625,-0.0006108652451075613,-0.001832595793530345,0
1679068249071331600,1.87233154296875,-0.004886921960860491,0.0012217304902151227,0.00366519158706069
1679068249091290600,1.89229052734375,-0.0012217304902151227,-0.0006108652451075613,-0.003054326167330146
1679068249111309600,1.9123095703125,-0.003054326167330146,0.001832595793530345,0.001832595793530345
1679068249132305400,1.933305419921875,-0.003054326167330146,-0.0012217304902151227,0.0024434609804302454
1679068249152325600,1.95332568359375,0,0.001832595793530345,-0.0012217304902151227
1679068249172224500,1.973224609375,0.0024434609804302454,-0.0012217304902151227,0.0024434609804302454
1679068249192305400,1.993305419921875,-0.00366519158706069,0,0.0024434609804302454
1679068249212324600,2.01332470703125,-0.0006108652451075613,0.003054326167330146,0.00427605677396059
1679068249232283400,2.033283447265625,-0.001832595793530345,0.0006108652451075613,-0.0012217304902151227
1679068249253340400,2.05434033203125,-0.0012217304902151227,0.0024434609804302454,-0.003054326167330146
1679068249273298400,2.07429833984375,-0.00366519158706069,-0.0006108652451075613,0.00366519158706069
1679068249293318400,2.094318359375,-0.0024434609804302454,-0.0006108652451075613,-0.001832595793530345
1679068249314131500,2.11513134765625,-0.0006108652451075613,-0.001832595793530345,0.0012217304902151227
1679068249335310600,2.136310546875,-0.00733038317412138,0,-0.001832595793530345
1679068249355329500,2.15632958984375,0,0.00366519158706069,-0.0024434609804302454
1679068249375288600,2.17628857421875,-0.0024434609804302454,0.0006108652451075613,0.0024434609804302454
1679068249395307500,2.1963076171875,-0.001832595793530345,-0.0012217304902151227,-0.0006108652451075613
1679068249415327500,2.216327392578125,-0.0012217304902151227,-0.003054326167330146,0.004886921960860491
1679068249435285500,2.236285400390625,-0.001832595793530345,0.00366519158706069,0.001832595793530345
1679068249455305500,2.256305419921875,-0.001832595793530345,0.0024434609804302454,-0.004886921960860491
1679068249475324400,2.276324462890625,-0.00733038317412138,-0.001832595793530345,0.0024434609804302454
1679068249495283500,2.296283447265625,0.0006108652451075613,0.0006108652451075613,0.0006108652451075613
1679068249515302400,2.316302490234375,-0.0006108652451075613,-0.0012217304902151227,0.001832595793530345
1679068249535261400,2.336261474609375,-0.0012217304902151227,-0.00366519158706069,0.0006108652451075613
1679068249555341600,2.356341552734375,0.00427605677396059,0.0024434609804302454,-0.001832595793530345
1679068249575300600,2.376300537109375,0.0012217304902151227,0.001832595793530345,0.00427605677396059
1679068249596296400,2.39729638671875,0,0.0024434609804302454,0.0006108652451075613
1679068249616315400,2.4173154296875,0,0.00366519158706069,-0.001832595793530345
1679068249636335600,2.437335693359375,-0.003054326167330146,0.003054326167330146,-0.0012217304902151227
1679068249656293600,2.457293701171875,0.0024434609804302454,-0.001832595793530345,-0.0024434609804302454
1679068249676313600,2.477313720703125,0.0012217304902151227,0.006108652334660292,-0.0012217304902151227
1679068249697309400,2.498309326171875,0.0012217304902151227,-0.0006108652451075613,-0.001832595793530345
1679068249717267500,2.518267333984375,0,0,0.0006108652451075613
1679068249738324500,2.539324462890625,0.0012217304902151227,0.0024434609804302454,-0.003054326167330146
1679068249758283500,2.559283447265625,0.001832595793530345,0.003054326167330146,-0.004886921960860491
1679068249778302500,2.579302490234375,0.0024434609804302454,0,0.0006108652451075613
1679068249798322400,2.599322509765625,-0.0006108652451075613,-0.00427605677396059,0.003054326167330146
1679068249818341600,2.619341552734375,-0.00366519158706069,-0.00427605677396059,0.0006108652451075613
1679068249838299400,2.63929931640625,0,0.0006108652451075613,-0.006108652334660292
1679068249858319600,2.659319580078125,0,0.00427605677396059,0.003054326167330146
1679068249878338600,2.679338623046875,0.003054326167330146,-0.004886921960860491,-0.0012217304902151227
1679068249898297600,2.699297607421875,0.001832595793530345,0.0006108652451075613,0.001832595793530345
1679068249918316500,2.719316650390625,0,0.001832595793530345,-0.0006108652451075613
1679068249938336500,2.73933642578125,-0.0024434609804302454,0.001832595793530345,-0.003054326167330146
1679068249958294500,2.75929443359375,0.006108652334660292,0.00427605677396059,-0.005497787147760391
1679068249979290600,2.78029052734375,0,-0.0012217304902151227,0.0012217304902151227
1679068249999310600,2.800310546875,-0.0012217304902151227,-0.00366519158706069,0.003054326167330146
1679068250019329500,2.82032958984375,-0.0006108652451075613,-0.00366519158706069,0.001832595793530345
1679068250040325600,2.84132568359375,0.003054326167330146,-0.00427605677396059,-0.001832595793530345
1679068250060284400,2.861284423828125,-0.0006108652451075613,0.0024434609804302454,-0.00427605677396059
1679068250080303600,2.8813037109375,0.00366519158706069,-0.0012217304902151227,0.003054326167330146
1679068250100323600,2.901323486328125,0,-0.0006108652451075613,0
1679068250120281600,2.921281494140625,0,-0.0006108652451075613,-0.0012217304902151227
1679068250140301600,2.941301513671875,0.0006108652451075613,-0.001832595793530345,0.0012217304902151227
1679068250160320500,2.961320556640625,0.0012217304902151227,-0.0006108652451075613,-0.0006108652451075613
1679068250180281600,2.981281494140625,0,0.0012217304902151227,-0.0024434609804302454
1679068250200301600,3.001301513671875,0.0006108652451075613,-0.004886921960860491,0.00427605677396059
1679068250220320500,3.021320556640625,-0.001832595793530345,-0.0012217304902151227,0.003054326167330146
1679068250240340500,3.041340576171875,-0.0006108652451075613,-0.0024434609804302454,-0.00366519158706069
1679068250261336600,3.062336669921875,0.0012217304902151227,0.006108652334660292,-0.00366519158706069
1679068250281294600,3.082294677734375,-0.0006108652451075613,-0.0006108652451075613,-0.0024434609804302454
1679068250302290400,3.10329052734375,0.0012217304902151227,0.0006108652451075613,-0.001832595793530345
1679068250322310400,3.123310302734375,-0.001832595793530345,0.0024434609804302454,-0.0024434609804302454
1679068250342329600,3.14332958984375,0.00366519158706069,0.0006108652451075613,0.0024434609804302454
1679068250362287600,3.16328759765625,0.0024434609804302454,-0.0006108652451075613,-0.0024434609804302454
1679068250382307600,3.1833076171875,0.001832595793530345,-0.0024434609804302454,-0.0012217304902151227
1679068250402326500,3.203326416015625,0.0006108652451075613,0.0024434609804302454,0.0006108652451075613
1679068250422285600,3.22328564453125,-0.0024434609804302454,0.0012217304902151227,-0.0006108652451075613
1679068250442304500,3.243304443359375,0.0024434609804302454,0.003054326167330146,0.0006108652451075613
1679068250462324500,3.263324462890625,0.0024434609804302454,0.0006108652451075613,0
1679068250482221600,3.2832216796875,-0.0012217304902151227,-0.001832595793530345,-0.001832595793530345
1679068250503339500,3.304339599609375,-0.0012217304902151227,0.001832595793530345,0.001832595793530345
1679068250523298600,3.324298583984375,0.001832595793530345,0.0012217304902151227,0.0024434609804302454
1679068250543317500,3.3443173828125,-0.0006108652451075613,0.004886921960860491,0.001832595793530345
1679068250563337500,3.36433740234375,0.0012217304902151227,0.00427605677396059,-0.0012217304902151227
1679068250583295500,3.38429541015625,0.001832595793530345,0.005497787147760391,-0.003054326167330146
1679068250603315500,3.4043154296875,-0.0006108652451075613,0.005497787147760391,-0.003054326167330146
1679068250624311600,3.4253115234375,0.0006108652451075613,0.0024434609804302454,0
1679068250644330500,3.44533056640625,-0.003054326167330146,-0.0006108652451075613,-0.0012217304902151227
1679068250664106500,3.4651064453125,0,-0.00427605677396059,-0.0024434609804302454
1679068250684308500,3.48530859375,-0.0006108652451075613,0.001832595793530345,0.004886921960860491
1679068250704328400,3.505328369140625,-0.001832595793530345,-0.00427605677396059,-0.0012217304902151227
1679068250724225500,3.5252255859375,-0.003054326167330146,-0.00366519158706069,-0.0006108652451075613
1679068250745282600,3.546282470703125,0.0006108652451075613,0.003054326167330146,-0.001832595793530345
1679068250765302500,3.566302490234375,-0.0024434609804302454,0.003054326167330146,-0.00427605677396059
1679068250785260500,3.586260498046875,-0.0006108652451075613,0.0006108652451075613,-0.006108652334660292
1679068250805341400,3.606341552734375,-0.001832595793530345,0,-0.0006108652451075613
1679068250825299500,3.626299560546875,-0.001832595793530345,-0.0012217304902151227,0.003054326167330146
1679068250845318400,3.646318359375,0.001832595793530345,0.001832595793530345,0.0024434609804302454
1679068250866314500,3.667314453125,-0.0006108652451075613,0.0006108652451075613,-0.0012217304902151227
1679068250887311600,3.6883115234375,0.0012217304902151227,0.003054326167330146,-0.0024434609804302454
1679068250907330600,3.70833056640625,-0.003054326167330146,-0.003054326167330146,0.004886921960860491
1679068250927288600,3.72828857421875,-0.001832595793530345,0.0012217304902151227,-0.0012217304902151227
1679068250947308500,3.74830859375,0.0006108652451075613,-0.001832595793530345,0.001832595793530345
1679068250967327500,3.768327392578125,0.0024434609804302454,0,0
1679068250987286500,3.78828662109375,0.006108652334660292,0.005497787147760391,-0.003054326167330146
1679068251007305500,3.808305419921875,0.0006108652451075613,-0.003054326167330146,0.00427605677396059
1679068251027325400,3.828325439453125,0.001832595793530345,0.00427605677396059,-0.0024434609804302454
1679068251047283500,3.848283447265625,0.0006108652451075613,0.001832595793530345,-0.003054326167330146
1679068251067303400,3.868303466796875,0.0024434609804302454,-0.0012217304902151227,-0.0012217304902151227
1679068251087322600,3.888322509765625,0.0006108652451075613,-0.003054326167330146,0.0006108652451075613
1679068251107281400,3.908281494140625,0,0.0012217304902151227,0.0012217304902151227
1679068251127300600,3.928300537109375,0.0006108652451075613,-0.001832595793530345,-0.00427605677396059
1679068251147320600,3.948320556640625,-0.0006108652451075613,0.0012217304902151227,0.00366519158706069
1679068251167281400,3.968281494140625,-0.003054326167330146,-0.004886921960860491,0.004886921960860491
1679068251187300600,3.988300537109375,0.0006108652451075613,0.0012217304902151227,0.0012217304902151227
1679068251207320600,4.008320556640625,0.004886921960860491,0,-0.006108652334660292
1679068251227339500,4.028339599609375,-0.0012217304902151227,-0.0006108652451075613,-0.0012217304902151227
1679068251247298600,4.048298583984375,-0.001832595793530345,0.0012217304902151227,0.0006108652451075613
1679068251267317500,4.0683173828125,-0.0024434609804302454,0.004886921960860491,0.0024434609804302454
1679068251289290500,4.09029052734375,0.004886921960860491,0,-0.00427605677396059
1679068251310286600,4.11128662109375,0,0.003054326167330146,-0.0012217304902151227
1679068251330305500,4.131305419921875,0.0006108652451075613,0.005497787147760391,-0.001832595793530345
1679068251351301600,4.152301513671875,0.0012217304902151227,0.001832595793530345,-0.0006108652451075613
1679068251371260400,4.172260498046875,-0.00427605677396059,0.0024434609804302454,-0.00427605677396059
1679068251391279600,4.192279541015625,0.0006108652451075613,0.0024434609804302454,0.0024434609804302454
1679068251413313500,4.2143134765625,0.0012217304902151227,0.006108652334660292,-0.005497787147760391
1679068251433271600,4.234271484375,0,0.0012217304902151227,0.0024434609804302454
1679068251453291500,4.25429150390625,0.00427605677396059,0.001832595793530345,0.001832595793530345
1679068251473310500,4.274310546875,0.001832595793530345,-0.001832595793530345,0.001832595793530345
1679068251494306600,4.295306640625,-0.0006108652451075613,0.0012217304902151227,-0.00427605677396059
1679068251515302400,4.316302490234375,-0.0024434609804302454,0.003054326167330146,-0.003054326167330146
1679068251536298500,4.337298583984375,0.0012217304902151227,-0.0024434609804302454,0.001832595793530345
1679068251556318500,4.357318359375,0.001832595793530345,0.001832595793530345,-0.0024434609804302454
1679068251576337400,4.37733740234375,0.00366519158706069,0.0012217304902151227,0.0024434609804302454
1679068251597333500,4.39833349609375,0.0006108652451075613,0,-0.003054326167330146
1679068251618329600,4.41932958984375,0.001832595793530345,0.001832595793530345,0
1679068251638288600,4.43928857421875,0,0.001832595793530345,0.0024434609804302454
1679068251658307600,4.4593076171875,0.0012217304902151227,0.0024434609804302454,-0.0024434609804302454
1679068251678327600,4.47932763671875,0.001832595793530345,0.00366519158706069,0.0012217304902151227
1679068251698285600,4.49928564453125,-0.0024434609804302454,-0.0012217304902151227,0.0006108652451075613
1679068251718305500,4.519305419921875,-0.0024434609804302454,0.001832595793530345,0.0012217304902151227
1679068251738324500,4.539324462890625,-0.001832595793530345,-0.0006108652451075613,-0.006108652334660292
1679068251758283500,4.559283447265625,-0.0012217304902151227,-0.001832595793530345,-0.0024434609804302454
1679068251778119400,4.579119384765625,0.0024434609804302454,-0.0012217304902151227,-0.001832595793530345
1679068251798322400,4.599322509765625,0.0024434609804302454,0.0012217304902151227,0.0024434609804302454
1679068251818341600,4.619341552734375,0.0024434609804302454,-0.0006108652451075613,0.0024434609804302454
1679068251838299400,4.63929931640625,0.0012217304902151227,0.0006108652451075613,0.00366519158706069
1679068251858319600,4.659319580078125,0.00427605677396059,0.001832595793530345,0.0012217304902151227
1679068251878338600,4.679338623046875,-0.001832595793530345,-0.005497787147760391,0.004886921960860491
1679068251898297600,4.699297607421875,0,0.0024434609804302454,0.0006108652451075613
1679068251918316500,4.719316650390625,-0.0024434609804302454,0.0006108652451075613,-0.001832595793530345
1679068251938336500,4.73933642578125,-0.0012217304902151227,0.0012217304902151227,0.0006108652451075613
1679068251958294500,4.75929443359375,0.003054326167330146,0.001832595793530345,0.003054326167330146
1679068251978314500,4.779314453125,0.003054326167330146,0.00427605677396059,-0.005497787147760391
1679068251998333400,4.79933349609375,-0.0006108652451075613,-0.0024434609804302454,-0.001832595793530345
1679068252018231600,4.8192314453125,0.00366519158706069,-0.0024434609804302454,-0.0006108652451075613
1679068252038311400,4.8393115234375,-0.0012217304902151227,0.00366519158706069,0.003054326167330146
1679068252058270500,4.8592705078125,0.0012217304902151227,0.003054326167330146,0.001832595793530345
1679068252079327500,4.880327392578125,0.0006108652451075613,0.001832595793530345,0
1679068252099285500,4.900285400390625,0.006108652334660292,0.0012217304902151227,-0.0024434609804302454
1679068252119305500,4.920305419921875,-0.003054326167330146,-0.006108652334660292,0.006719517521560192
1679068252139324400,4.940324462890625,-0.0006108652451075613,-0.0006108652451075613,-0.0024434609804302454
1679068252159282400,4.960282470703125,-0.00427605677396059,-0.00427605677396059,0.0024434609804302454
1679068252179305500,4.980305419921875,0.0024434609804302454,-0.003054326167330146,-0.0006108652451075613
1679068252199324400,5.000324462890625,-0.0012217304902151227,-0.001832595793530345,-0.005497787147760391
1679068252220320500,5.021320556640625,0.00427605677396059,0.0012217304902151227,-0.0012217304902151227
1679068252240340500,5.041340576171875,0.0006108652451075613,0.005497787147760391,0.0012217304902151227
1679068252260237600,5.061237548828125,0.003054326167330146,-0.0006108652451075613,-0.001832595793530345
1679068252280317400,5.0813173828125,0.0024434609804302454,0.003054326167330146,0.0006108652451075613
1679068252300337400,5.10133740234375,-0.006719517521560192,0,0.0012217304902151227
1679068252320295400,5.12129541015625,-0.001832595793530345,0.003054326167330146,-0.0006108652451075613
1679068252340315400,5.1413154296875,-0.00366519158706069,0.00366519158706069,0.005497787147760391
1679068252360334600,5.16133447265625,0.0012217304902151227,0.003054326167330146,-0.0012217304902151227
1679068252380293600,5.181293701171875,0.00733038317412138,0.00366519158706069,-0.0024434609804302454
1679068252400312600,5.2013125,-0.0012217304902151227,0.0012217304902151227,0.00427605677396059
1679068252420332500,5.22133251953125,0,-0.003054326167330146,0.0012217304902151227
1679068252440290600,5.24129052734375,-0.0012217304902151227,-0.001832595793530345,-0.0012217304902151227
1679068252460310500,5.261310546875,-0.0012217304902151227,-0.0006108652451075613,0.0006108652451075613
1679068252480329500,5.28132958984375,-0.0006108652451075613,0.001832595793530345,-0.003054326167330146
1679068252500288500,5.30128857421875,0,-0.0012217304902151227,-0.0012217304902151227
1679068252520307500,5.321307373046875,-0.0006108652451075613,0.001832595793530345,-0.003054326167330146
1679068252540327400,5.341327392578125,0.0024434609804302454,0,-0.0012217304902151227
1679068252560285400,5.361285400390625,0.003054326167330146,0.0006108652451075613,-0.0024434609804302454
1679068252580304600,5.3813046875,-0.0012217304902151227,0.0012217304902151227,0.001832595793530345
1679068252600324600,5.40132470703125,0.001832595793530345,0.003054326167330146,-0.0012217304902151227
1679068252621320400,5.422320556640625,0,0.0012217304902151227,0.0006108652451075613
1679068252641339400,5.44233935546875,0.0006108652451075613,0.003054326167330146,0.003054326167330146
1679068252661298400,5.46229833984375,-0.0012217304902151227,-0.001832595793530345,0.0024434609804302454
1679068252681317600,5.482317626953125,-0.001832595793530345,-0.006719517521560192,0.0024434609804302454
1679068252701337600,5.502337646484375,0.0012217304902151227,-0.0006108652451075613,0.00366519158706069
1679068252721234400,5.522234375,0.001832595793530345,0.0024434609804302454,-0.00427605677396059
1679068252741315600,5.542315673828125,0.0012217304902151227,0,-0.0024434609804302454
1679068252761334500,5.56233447265625,0.0012217304902151227,0,-0.003054326167330146
1679068252781293600,5.58229345703125,0.0024434609804302454,-0.0012217304902151227,-0.0012217304902151227
1679068252801312500,5.6023125,0.0012217304902151227,-0.0006108652451075613,-0.005497787147760391
1679068252821332500,5.62233251953125,-0.0012217304902151227,-0.001832595793530345,-0.0006108652451075613
1679068252841290500,5.64229052734375,0.0006108652451075613,0.0012217304902151227,-0.0024434609804302454
1679068252861310500,5.662310546875,-0.0006108652451075613,-0.001832595793530345,0.0024434609804302454
1679068252881329400,5.682329345703125,-0.006108652334660292,-0.0024434609804302454,0.005497787147760391
1679068252901288400,5.702288330078125,0.003054326167330146,-0.0006108652451075613,-0.003054326167330146
1679068252922284500,5.723284423828125,0.0012217304902151227,-0.0006108652451075613,0.0012217304902151227
1679068252943341600,5.744341552734375,-0.003054326167330146,0,0.001832595793530345
1679068252963299600,5.764299560546875,0.004886921960860491,0,0.0006108652451075613
1679068252983319600,5.784319580078125,-0.0006108652451075613,-0.001832595793530345,0.0024434609804302454
1679068253003338500,5.80433837890625,0.001832595793530345,0.0024434609804302454,-0.0006108652451075613
1679068253023297500,5.824297607421875,0.001832595793530345,-0.0012217304902151227,-0.0012217304902151227
1679068253043316500,5.84431640625,0,0.0006108652451075613,-0.0012217304902151227
1679068253063335400,5.86433544921875,0.0012217304902151227,-0.00855211354792118,0.005497787147760391
1679068253083294500,5.88429443359375,0.00366519158706069,0.006108652334660292,0.001832595793530345
1679068253103313400,5.9043134765625,0.0012217304902151227,-0.003054326167330146,0.00427605677396059
1679068253124309500,5.9253095703125,0.0024434609804302454,0.0006108652451075613,-0.0012217304902151227
1679068253144329500,5.94532958984375,0.00366519158706069,0.0024434609804302454,-0.001832595793530345
1679068253164287500,5.96528759765625,-0.0012217304902151227,0.0024434609804302454,-0.001832595793530345
1679068253184309500,5.9853095703125,-0.001832595793530345,0.006719517521560192,0.00427605677396059
1679068253205305600,6.0063056640625,0.001832595793530345,-0.001832595793530345,-0.004886921960860491
1679068253225325600,6.02632568359375,-0.00366519158706069,-0.005497787147760391,0.00366519158706069
1679068253245283600,6.04628369140625,0.0024434609804302454,-0.00855211354792118,0.003054326167330146
1679068253265120500,6.06612060546875,0.00427605677396059,0.0012217304902151227,-0.0006108652451075613
1679068253285322500,6.086322509765625,0.0012217304902151227,-0.00366519158706069,0.0024434609804302454
1679068253305098500,6.106098388671875,-0.001832595793530345,0.003054326167330146,-0.003054326167330146
1679068253325300500,6.126300537109375,0.00366519158706069,0.0024434609804302454,-0.005497787147760391
1679068253345320400,6.146320556640625,0.00366519158706069,0,0.0006108652451075613
1679068253366316500,6.167316650390625,-0.0012217304902151227,-0.00427605677396059,0.00366519158706069
1679068253386335500,6.18733544921875,-0.00366519158706069,0,0.0012217304902151227
1679068253407331600,6.20833154296875,0.0012217304902151227,0,0.003054326167330146
1679068253427290600,6.22829052734375,-0.0012217304902151227,-0.00366519158706069,-0.0012217304902151227
1679068253447309600,6.2483095703125,0.0012217304902151227,0,0.0006108652451075613
1679068253468305400,6.269305419921875,0.0024434609804302454,-0.0024434609804302454,0
1679068253488325600,6.28932568359375,0.0012217304902151227,0.0024434609804302454,0.0012217304902151227
1679068253508283400,6.309283447265625,0.0012217304902151227,0.0024434609804302454,0
1679068253528303600,6.3293037109375,0.004886921960860491,0.004886921960860491,0.00366519158706069
1679068253549299500,6.350299560546875,-0.003054326167330146,-0.0006108652451075613,0
1679068253569318400,6.370318359375,0.0006108652451075613,0.003054326167330146,0
1679068253589338600,6.390338623046875,0.0006108652451075613,0,0
1679068253609296600,6.410296630859375,0.0006108652451075613,-0.0012217304902151227,0
1679068253629316600,6.430316650390625,-0.003054326167330146,-0.0012217304902151227,0.001832595793530345
1679068253649335600,6.45033544921875,-0.0012217304902151227,0.0012217304902151227,0
1679068253669294600,6.470294677734375,0.0006108652451075613,0.0006108652451075613,0.001832595793530345
1679068253689313500,6.4903134765625,0,0.0006108652451075613,0
1679068253709332500,6.51033251953125,-0.0006108652451075613,-0.0024434609804302454,-0.003054326167330146
1679068253729291500,6.53029150390625,0,0.003054326167330146,0.001832595793530345
1679068253750287600,6.55128759765625,-0.0012217304902151227,-0.0006108652451075613,0.00366519158706069
1679068253770306600,6.571306640625,0.001832595793530345,0.001832595793530345,0.0006108652451075613
1679068253791302400,6.592302490234375,0.00366519158706069,-0.0006108652451075613,0.006719517521560192
1679068253812299500,6.613299560546875,0.003054326167330146,-0.004886921960860491,-0.001832595793530345
1679068253832318500,6.633318359375,0.0006108652451075613,-0.0024434609804302454,-0.0006108652451075613
1679068253852337400,6.65333740234375,0.001832595793530345,-0.0006108652451075613,-0.0012217304902151227
1679068253872296400,6.67329638671875,0,0.003054326167330146,-0.0024434609804302454
1679068253893292500,6.69429248046875,0,0.0012217304902151227,0.0006108652451075613
1679068253913311500,6.7143115234375,0.005497787147760391,0.0006108652451075613,0.001832595793530345
1679068253933331500,6.73433154296875,-0.0006108652451075613,-0.001832595793530345,0.0024434609804302454
1679068253953289500,6.75428955078125,-0.00366519158706069,-0.0006108652451075613,-0.0024434609804302454
1679068253974285600,6.77528564453125,0.0012217304902151227,0.001832595793530345,-0.0024434609804302454
1679068253994305500,6.795305419921875,0,-0.0006108652451075613,-0.0006108652451075613
1679068254016339500,6.81733935546875,0.0012217304902151227,-0.00366519158706069,0
1679068254037335600,6.83833544921875,0.003054326167330146,0.01038470957428217,-0.003054326167330146
1679068254057293600,6.85829345703125,-0.0012217304902151227,0.0006108652451075613,0.0012217304902151227
1679068254077312500,6.8783125,0.0024434609804302454,0.005497787147760391,-0.00366519158706069
1679068254097332500,6.89833251953125,-0.0012217304902151227,0.001832595793530345,-0.0024434609804302454
1679068254117290500,6.91829052734375,0.0012217304902151227,0,0.001832595793530345
1679068254137310500,6.938310546875,0.0012217304902151227,0.0024434609804302454,-0.0024434609804302454
1679068254157329400,6.958329345703125,0.0012217304902151227,0.00427605677396059,0
1679068254177290500,6.97829052734375,0.0024434609804302454,0.005497787147760391,0.0024434609804302454
1679068254197249500,6.99824951171875,0,-0.0006108652451075613,0.003054326167330146
1679068254217329400,7.018329345703125,-0.0006108652451075613,0.0012217304902151227,0.003054326167330146
1679068254237288400,7.038288330078125,0.0012217304902151227,0.0006108652451075613,0.00366519158706069
1679068254257307400,7.058307373046875,-0.00366519158706069,0.0024434609804302454,0.005497787147760391
1679068254277327600,7.07832763671875,-0.001832595793530345,-0.0012217304902151227,0.0012217304902151227
1679068254297285600,7.09828564453125,-0.0006108652451075613,-0.001832595793530345,0.001832595793530345
1679068254317244400,7.118244384765625,-0.001832595793530345,-0.0006108652451075613,0.0012217304902151227
1679068254338301400,7.139301513671875,0,0.001832595793530345,-0.0006108652451075613
1679068254358320600,7.159320556640625,0.0006108652451075613,-0.0012217304902151227,0
1679068254378340600,7.179340576171875,0.001832595793530345,0.00427605677396059,0.001832595793530345
1679068254398298600,7.199298583984375,0.0024434609804302454,0.0012217304902151227,-0.001832595793530345
1679068254418318600,7.219318603515625,0.001832595793530345,-0.0012217304902151227,-0.0006108652451075613
1679068254438337500,7.239337646484375,-0.00366519158706069,-0.0006108652451075613,-0.0006108652451075613
1679068254458296600,7.259296630859375,0.0012217304902151227,0.003054326167330146,-0.0012217304902151227
1679068254478315500,7.2793154296875,0.00427605677396059,0.00366519158706069,-0.003054326167330146
1679068254498334500,7.29933447265625,0.00427605677396059,0.0024434609804302454,-0.001832595793530345
1679068254518293500,7.31929345703125,-0.001832595793530345,0.0024434609804302454,0.00427605677396059
1679068254538251500,7.33925146484375,-0.0024434609804302454,0.00366519158706069,-0.0006108652451075613
1679068254558332400,7.35933251953125,-0.0006108652451075613,-0.00366519158706069,0.0012217304902151227
1679068254578290400,7.37929052734375,0.001832595793530345,0.001832595793530345,0
1679068254598310400,7.399310302734375,0.0012217304902151227,0.0012217304902151227,-0.00366519158706069
1679068254619123500,7.42012353515625,0.001832595793530345,0.003054326167330146,0.003054326167330146
1679068254639325400,7.440325439453125,0.0006108652451075613,0,0.005497787147760391
1679068254659284500,7.460284423828125,-0.003054326167330146,-0.0006108652451075613,0.001832595793530345
1679068254679303400,7.480303466796875,0.003054326167330146,0,-0.00427605677396059
1679068254699323400,7.500323486328125,-0.0006108652451075613,0.0006108652451075613,0.0024434609804302454
1679068254719281400,7.520281494140625,0,0.001832595793530345,-0.0024434609804302454
1679068254739301600,7.540301513671875,0.0006108652451075613,-0.00366519158706069,-0.00427605677396059
1679068254759259400,7.56025927734375,0.0006108652451075613,0.003054326167330146,-0.0024434609804302454
1679068254779340500,7.580340576171875,-0.003054326167330146,0.0012217304902151227,0
1679068254799298600,7.600298583984375,-0.003054326167330146,-0.0006108652451075613,0.0006108652451075613
1679068254819318500,7.620318603515625,0,0.0006108652451075613,-0.0006108652451075613
1679068254840314600,7.641314697265625,0.0024434609804302454,-0.0012217304902151227,0.001832595793530345
1679068254860333600,7.66133349609375,-0.0012217304902151227,0,-0.0012217304902151227
1679068254880292600,7.681292724609375,0.0006108652451075613,-0.0012217304902151227,-0.0006108652451075613
1679068254900311600,7.7013115234375,0,-0.0006108652451075613,0
1679068254921307400,7.722307373046875,-0.001832595793530345,-0.00366519158706069,0.0024434609804302454
1679068254942303500,7.743303466796875,-0.0024434609804302454,-0.0024434609804302454,0.0006108652451075613
1679068254962323500,7.763323486328125,0.003054326167330146,0,-0.00427605677396059
1679068254982281500,7.783281494140625,0.0006108652451075613,0.003054326167330146,-0.001832595793530345
1679068255002300400,7.803300537109375,-0.004886921960860491,-0.0012217304902151227,0.004886921960860491
1679068255022320600,7.823320556640625,-0.0024434609804302454,-0.003054326167330146,0.0012217304902151227
1679068255042339600,7.843339599609375,0.0024434609804302454,0.004886921960860491,-0.0012217304902151227
1679068255062298600,7.863298583984375,0.0024434609804302454,-0.00427605677396059,0.0006108652451075613
1679068255082317600,7.883317626953125,0.001832595793530345,0.0006108652451075613,-0.0006108652451075613
1679068255102337500,7.903337646484375,0.0012217304902151227,-0.006108652334660292,0.001832595793530345
1679068255122295600,7.923295654296875,0.001832595793530345,0.00427605677396059,-0.00366519158706069
1679068255142315500,7.9433154296875,0,0.00427605677396059,-0.001832595793530345
1679068255163311600,7.9643115234375,0,-0.0006108652451075613,-0.0024434609804302454
1679068255184309500,7.9853095703125,0.004886921960860491,0.005497787147760391,-0.0006108652451075613
1679068255204329500,8.00532958984375,0,-0.0024434609804302454,0.0006108652451075613
1679068255224287500,8.02528759765625,-0.00427605677396059,-0.00366519158706069,0.00427605677396059
1679068255246321400,8.0473212890625,-0.001832595793530345,-0.0024434609804302454,0.0012217304902151227
1679068255266340600,8.067340576171874,-0.003054326167330146,-0.0024434609804302454,0
1679068255287336400,8.08833642578125,-0.0006108652451075613,0.003054326167330146,-0.0012217304902151227
1679068255308333600,8.10933349609375,0,-0.0006108652451075613,-0.001832595793530345
1679068255329329400,8.130329345703124,0,0.0006108652451075613,-0.003054326167330146
1679068255349287400,8.150287353515624,0.0012217304902151227,-0.003054326167330146,0.003054326167330146
1679068255369306600,8.170306640625,0.0006108652451075613,0.0006108652451075613,-0.001832595793530345
1679068255389326600,8.19032666015625,0.0024434609804302454,0.0012217304902151227,0
1679068255409284600,8.21028466796875,-0.003054326167330146,0.003054326167330146,-0.00366519158706069
1679068255430341600,8.231341552734374,-0.0012217304902151227,0.0012217304902151227,-0.001832595793530345
1679068255450300400,8.251300537109374,0,0.00733038317412138,-0.005497787147760391
1679068255470197500,8.271197509765624,0.0006108652451075613,-0.0006108652451075613,-0.006108652334660292
1679068255490339600,8.291339599609374,0.001832595793530345,0,-0.0012217304902151227
1679068255510175500,8.311175537109374,-0.0012217304902151227,0.0024434609804302454,0
1679068255530317600,8.331317626953124,0.004886921960860491,0.0006108652451075613,-0.00366519158706069
1679068255550336500,8.35133642578125,-0.0006108652451075613,-0.003054326167330146,-0.003054326167330146
1679068255570295600,8.371295654296874,-0.0006108652451075613,-0.003054326167330146,-0.003054326167330146
1679068255590314500,8.391314453125,-0.001832595793530345,0.001832595793530345,0.003054326167330146
1679068255610151400,8.4111513671875,-0.0012217304902151227,-0.0024434609804302454,-0.005497787147760391
1679068255630292500,8.43129248046875,0.0012217304902151227,0.003054326167330146,-0.00427605677396059
1679068255650312400,8.4513125,0.001832595793530345,0.001832595793530345,0.0012217304902151227
1679068255671308500,8.47230859375,0.001832595793530345,-0.003054326167330146,-0.00427605677396059
1679068255691327500,8.492327392578124,0,0.0006108652451075613,-0.004886921960860491
1679068255711286500,8.51228662109375,-0.00366519158706069,0.0006108652451075613,0.0006108652451075613
1679068255731305500,8.532305419921874,0.0012217304902151227,0,-0.005497787147760391
1679068255751325400,8.552325439453124,-0.003054326167330146,-0.00366519158706069,0.0024434609804302454
1679068255772321500,8.573321533203124,0.00427605677396059,0.0006108652451075613,0.0006108652451075613
1679068255792340500,8.593340576171874,-0.003054326167330146,0.0012217304902151227,-0.0024434609804302454
1679068255812237600,8.613237548828126,0.0012217304902151227,-0.0006108652451075613,-0.0006108652451075613
1679068255832257500,8.633257568359374,0.0024434609804302454,-0.0006108652451075613,-0.001832595793530345
1679068255852276500,8.6532763671875,0.0012217304902151227,0.0024434609804302454,-0.005497787147760391
1679068255872296400,8.67329638671875,-0.001832595793530345,0.001832595793530345,-0.004886921960860491
1679068255892315400,8.6933154296875,-0.0024434609804302454,-0.0006108652451075613,0
1679068255912335600,8.713335693359374,0.001832595793530345,0.003054326167330146,-0.0006108652451075613
1679068255932293600,8.733293701171876,0.003054326167330146,0.006108652334660292,-0.006108652334660292
1679068255953289500,8.75428955078125,-0.0006108652451075613,-0.0012217304902151227,0
1679068255973309400,8.774309326171876,0.0006108652451075613,0.0012217304902151227,0.004886921960860491
1679068255993328600,8.79432861328125,0.0006108652451075613,0.001832595793530345,-0.0006108652451075613
1679068256013287400,8.814287353515626,0.0012217304902151227,0.00366519158706069,-0.0006108652451075613
1679068256033306600,8.834306640625,0,-0.0012217304902151227,-0.0006108652451075613
1679068256053265400,8.854265380859376,0,-0.003054326167330146,0.0024434609804302454
1679068256073284600,8.87428466796875,0,0.003054326167330146,0.0012217304902151227
1679068256093304600,8.8943046875,0.00427605677396059,0.00366519158706069,-0.004886921960860491
1679068256113323500,8.914323486328126,0,0.00366519158706069,-0.00366519158706069
1679068256134319600,8.935319580078126,0.0006108652451075613,0.003054326167330146,0.0024434609804302454
1679068256154339600,8.955339599609376,-0.0006108652451075613,-0.001832595793530345,0.001832595793530345
1679068256174239500,8.975239501953125,0.00366519158706069,-0.0006108652451075613,-0.0012217304902151227
1679068256194319600,8.995319580078124,0.0024434609804302454,0.0024434609804302454,-0.001832595793530345
1679068256214339600,9.015339599609375,-0.001832595793530345,0.0012217304902151227,-0.003054326167330146
1679068256234297600,9.035297607421874,0.0006108652451075613,0.0024434609804302454,-0.00366519158706069
1679068256254317600,9.055317626953125,-0.0006108652451075613,0.0006108652451075613,-0.0012217304902151227
1679068256274336500,9.07533642578125,0.0012217304902151227,-0.0012217304902151227,0
1679068256294294500,9.09529443359375,-0.0012217304902151227,-0.00366519158706069,-0.0012217304902151227
1679068256314314500,9.115314453125,0.0012217304902151227,-0.0012217304902151227,0.0012217304902151227
1679068256334333400,9.13533349609375,-0.0024434609804302454,0.0012217304902151227,0.003054326167330146
1679068256354292500,9.15529248046875,-0.0006108652451075613,-0.0012217304902151227,-0.0006108652451075613
1679068256374311400,9.1753115234375,0.0024434609804302454,0,0
1679068256394331400,9.195331298828124,0.0006108652451075613,0.005497787147760391,-0.00366519158706069
1679068256414289400,9.215289306640624,-0.005497787147760391,0.001832595793530345,0.00427605677396059
1679068256434309600,9.2353095703125,-0.0012217304902151227,-0.0024434609804302454,0.003054326167330146
1679068256454328600,9.25532861328125,-0.001832595793530345,-0.0024434609804302454,0.0006108652451075613
1679068256474287600,9.27528759765625,0.001832595793530345,0.003054326167330146,-0.00366519158706069
1679068256495283500,9.296283447265624,-0.0006108652451075613,0,-0.0012217304902151227
1679068256515302400,9.316302490234374,0.003054326167330146,0.001832595793530345,0
1679068256536298500,9.337298583984374,0.00366519158706069,0.004886921960860491,-0.00366519158706069
1679068256556318500,9.357318359375,-0.0006108652451075613,-0.0012217304902151227,0
1679068256576337400,9.37733740234375,0.006108652334660292,0.005497787147760391,-0.0012217304902151227
1679068256596296400,9.39729638671875,-0.0024434609804302454,0,-0.0012217304902151227
1679068256616315400,9.4173154296875,0.004886921960860491,-0.0012217304902151227,0.0006108652451075613
1679068256636335600,9.437335693359374,-0.001832595793530345,0.00366519158706069,0.0006108652451075613
1679068256656232400,9.457232421875,-0.0012217304902151227,-0.0012217304902151227,0.00427605677396059
1679068256676252400,9.47725244140625,0.0006108652451075613,-0.001832595793530345,0.00427605677396059
1679068256696271600,9.497271728515624,0.0006108652451075613,0.001832595793530345,0.003054326167330146
1679068256717267500,9.518267333984374,-0.001832595793530345,-0.003054326167330146,0.0012217304902151227
1679068256737287400,9.538287353515624,0.001832595793530345,-0.001832595793530345,0.0024434609804302454
1679068256757306600,9.558306640625,-0.0012217304902151227,-0.0012217304902151227,0.004886921960860491
1679068256777325600,9.57832568359375,0,-0.0012217304902151227,0.003054326167330146
1679068256797284600,9.59828466796875,0.00427605677396059,-0.0012217304902151227,0.0024434609804302454
1679068256818341600,9.619341552734374,0.003054326167330146,0.0012217304902151227,0.0012217304902151227
1679068256838299400,9.63929931640625,0,0.0012217304902151227,-0.004886921960860491
1679068256859295500,9.66029541015625,-0.001832595793530345,0.0024434609804302454,-0.004886921960860491
1679068256879315500,9.6803154296875,0.00366519158706069,0.0024434609804302454,-0.0024434609804302454
1679068256899334400,9.70033447265625,0.0006108652451075613,-0.0012217304902151227,-0.005497787147760391
1679068256920330500,9.72133056640625,0.0006108652451075613,-0.0024434609804302454,-0.0024434609804302454
1679068256940289500,9.74128955078125,0,0,0.003054326167330146
1679068256960308500,9.76130859375,-0.0006108652451075613,0.0006108652451075613,0.001832595793530345
1679068256980328400,9.781328369140626,-0.003054326167330146,0,0
1679068257000225500,9.8012255859375,0.003054326167330146,0.0012217304902151227,0.004886921960860491
1679068257020123400,9.821123291015626,0.0006108652451075613,0.0012217304902151227,0.001832595793530345
1679068257040325600,9.84132568359375,0,0,-0.0006108652451075613
1679068257061321500,9.862321533203126,0.00366519158706069,-0.0012217304902151227,-0.0006108652451075613
1679068257081341400,9.882341552734376,0.0006108652451075613,-0.003054326167330146,-0.003054326167330146
1679068257101299500,9.902299560546876,-0.0012217304902151227,-0.001832595793530345,0.005497787147760391
1679068257121319400,9.9223193359375,0.001832595793530345,-0.001832595793530345,0.00427605677396059
1679068257141277400,9.94227734375,0,-0.003054326167330146,0.00366519158706069
1679068257161297400,9.96229736328125,-0.004886921960860491,0.004886921960860491,-0.00427605677396059
1679068257182295600,9.983295654296874,-0.00366519158706069,0.003054326167330146,0.003054326167330146
1679068257202315500,10.0033154296875,0.0006108652451075613,0,0
1679068257222334500,10.02333447265625,0.001832595793530345,0.0024434609804302454,-0.0012217304902151227
1679068257242293500,10.04329345703125,0.006108652334660292,-0.0012217304902151227,0.0012217304902151227
1679068257262312400,10.0633125,-0.0006108652451075613,0,0.006108652334660292
1679068257282332400,10.08333251953125,0.0006108652451075613,-0.003054326167330146,-0.00427605677396059
1679068257302290400,10.10329052734375,0.001832595793530345,0,0.001832595793530345
1679068257323286500,10.12428662109375,0.0024434609804302454,0.00733038317412138,-0.0006108652451075613
1679068257343245600,10.14424560546875,0.0012217304902151227,0.00427605677396059,-0.005497787147760391
1679068257363325400,10.164325439453124,-0.003054326167330146,0.0012217304902151227,0.0006108652451075613
1679068257384321500,10.185321533203124,-0.0006108652451075613,0.0006108652451075613,0.0024434609804302454
1679068257404341500,10.205341552734374,-0.0006108652451075613,-0.0024434609804302454,-0.0006108652451075613
1679068257424299500,10.225299560546874,0.0006108652451075613,0.003054326167330146,0.001832595793530345
1679068257444319500,10.245319580078124,-0.0006108652451075613,-0.0012217304902151227,-0.0024434609804302454
1679068257464338400,10.26533837890625,0.0012217304902151227,-0.0006108652451075613,0.0006108652451075613
1679068257484296400,10.28529638671875,0.0024434609804302454,-0.0012217304902151227,-0.003054326167330146
1679068257505292500,10.30629248046875,0,0.00366519158706069,0.0024434609804302454
1679068257526289400,10.327289306640624,0,0.001832595793530345,0
1679068257546308600,10.34730859375,0.0006108652451075613,-0.0012217304902151227,0.00366519158706069
1679068257568342500,10.369342529296874,0.001832595793530345,0,0.001832595793530345
1679068257588300500,10.389300537109374,-0.0006108652451075613,0.00733038317412138,-0.00366519158706069
1679068257608320500,10.409320556640624,-0.0024434609804302454,-0.003054326167330146,0.004886921960860491
1679068257628339500,10.42933935546875,-0.003054326167330146,-0.0012217304902151227,0.0012217304902151227
1679068257648297500,10.44929736328125,0.0012217304902151227,-0.001832595793530345,-0.001832595793530345
1679068257668256500,10.469256591796874,0.00733038317412138,0.0024434609804302454,-0.006108652334660292
1679068257689313500,10.4903134765625,0.003054326167330146,0.001832595793530345,-0.004886921960860491
1679068257709332500,10.51033251953125,0.003054326167330146,0.0012217304902151227,0.0006108652451075613
1679068257731305500,10.532305419921874,0,-0.001832595793530345,0.0006108652451075613
1679068257751264500,10.552264404296874,-0.0006108652451075613,0.004886921960860491,0.0012217304902151227
1679068257771283500,10.572283447265624,-0.001832595793530345,0,0.00427605677396059
1679068257792340500,10.593340576171874,-0.001832595793530345,0.0006108652451075613,0
1679068257813336600,10.614336669921874,0.00366519158706069,0.003054326167330146,-0.00427605677396059
1679068257834332400,10.63533251953125,0.00366519158706069,0.006719517521560192,-0.0012217304902151227
1679068257854230500,10.65523046875,-0.003054326167330146,-0.0006108652451075613,-0.003054326167330146
1679068257875287600,10.67628759765625,-0.0006108652451075613,-0.0012217304902151227,0.0006108652451075613
1679068257895245600,10.69624560546875,0.0006108652451075613,0,-0.001832595793530345
1679068257915326500,10.716326416015624,0.001832595793530345,-0.001832595793530345,0.004886921960860491
1679068257936322600,10.737322509765624,0.0024434609804302454,0,-0.001832595793530345
1679068257956341500,10.757341552734376,0.003054326167330146,-0.0006108652451075613,0.001832595793530345
1679068257977337600,10.778337646484376,-0.0012217304902151227,0.0012217304902151227,0
1679068257997296600,10.798296630859374,0,0,-0.0006108652451075613
1679068258018292500,10.81929248046875,-0.0006108652451075613,0.007941247895359993,-0.0006108652451075613
1679068258038311400,10.8393115234375,0.003054326167330146,-0.0012217304902151227,0.00366519158706069
1679068258058331400,10.859331298828126,0.003054326167330146,0.0012217304902151227,0.001832595793530345
1679068258078289400,10.879289306640626,0,0,-0.003054326167330146
1679068258098309600,10.8993095703125,-0.003054326167330146,-0.006719517521560192,0.001832595793530345
1679068258118328600,10.91932861328125,-0.0024434609804302454,0.0012217304902151227,0.0024434609804302454
1679068258138286600,10.93928662109375,-0.0006108652451075613,0.0024434609804302454,0.0024434609804302454
1679068258158306600,10.959306640625,-0.0006108652451075613,0,0.0024434609804302454
1679068258178328600,10.97932861328125,0.0012217304902151227,-0.001832595793530345,-0.0024434609804302454
1679068258198286600,10.99928662109375,0.001832595793530345,0.0006108652451075613,0.0024434609804302454
1679068258218306600,11.019306640625,-0.00427605677396059,-0.00366519158706069,-0.00427605677396059
1679068258238325500,11.039325439453124,0.0006108652451075613,0.0012217304902151227,0.0024434609804302454
1679068258258223600,11.0592236328125,-0.003054326167330146,-0.005497787147760391,0.00855211354792118
1679068258278303500,11.079303466796874,0.00427605677396059,0.00733038317412138,-0.0012217304902151227
1679068258299299600,11.100299560546874,0.00427605677396059,-0.0006108652451075613,-0.0024434609804302454
1679068258319319600,11.120319580078124,0.0012217304902151227,0.0024434609804302454,-0.006719517521560192
1679068258341291500,11.14229150390625,0.0012217304902151227,0.0006108652451075613,-0.0024434609804302454
1679068258361250600,11.16225048828125,-0.0012217304902151227,0.003054326167330146,-0.0006108652451075613
1679068258381330400,11.182330322265624,-0.003054326167330146,-0.00427605677396059,-0.0006108652451075613
1679068258401289500,11.20228955078125,0.0012217304902151227,0.003054326167330146,0
1679068258421308400,11.222308349609374,-0.0012217304902151227,0.001832595793530345,0.0012217304902151227
1679068258441328600,11.24232861328125,0,0.003054326167330146,0.00427605677396059
1679068258461286400,11.262286376953124,0.0006108652451075613,0.0006108652451075613,-0.005497787147760391
1679068258481306600,11.282306640625,-0.0012217304902151227,0.004886921960860491,-0.00366519158706069
1679068258501325600,11.30232568359375,0.0006108652451075613,-0.0024434609804302454,0.00366519158706069
1679068258521284600,11.32228466796875,-0.0012217304902151227,-0.004886921960860491,0.001832595793530345
1679068258541303600,11.342303466796874,-0.001832595793530345,-0.0006108652451075613,-0.001832595793530345
1679068258561139500,11.362139404296874,-0.001832595793530345,-0.003054326167330146,0.0012217304902151227
1679068258581281500,11.382281494140624,0,-0.0006108652451075613,0.003054326167330146
1679068258602338600,11.403338623046874,0.00366519158706069,-0.0012217304902151227,0.001832595793530345
1679068258622297600,11.423297607421874,0.00427605677396059,-0.001832595793530345,-0.0024434609804302454
1679068258642316500,11.443316650390624,0.003054326167330146,0.006719517521560192,-0.006108652334660292
1679068258663312600,11.464312744140624,-0.0006108652451075613,-0.001832595793530345,-0.0024434609804302454
1679068258684308500,11.48530859375,0.006719517521560192,-0.0012217304902151227,-0.0012217304902151227
1679068258704328400,11.505328369140624,0.0006108652451075613,-0.0024434609804302454,0.0006108652451075613
1679068258725324500,11.526324462890624,-0.003054326167330146,0.0012217304902151227,-0.0006108652451075613
1679068258745282600,11.546282470703124,-0.0006108652451075613,0.0012217304902151227,-0.0012217304902151227
1679068258765302500,11.566302490234374,-0.0012217304902151227,0,0.00366519158706069
1679068258785321500,11.586321533203124,-0.001832595793530345,-0.00366519158706069,-0.0012217304902151227
1679068258805341400,11.606341552734374,0.001832595793530345,-0.005497787147760391,-0.00427605677396059
1679068258825299500,11.626299560546874,-0.0024434609804302454,0.0024434609804302454,-0.003054326167330146
1679068258845318400,11.646318359375,0,-0.0024434609804302454,-0.001832595793530345
1679068258865338600,11.666338623046874,0.0012217304902151227,-0.0012217304902151227,-0.00366519158706069
1679068258885296600,11.686296630859376,-0.0006108652451075613,0.003054326167330146,-0.0012217304902151227
1679068258905316600,11.706316650390624,0.003054326167330146,-0.00366519158706069,-0.0012217304902151227
1679068258925335600,11.72633544921875,0,0,-0.001832595793530345
1679068258946331400,11.747331298828126,0.0024434609804302454,0.001832595793530345,-0.0024434609804302454
1679068258966229500,11.7672294921875,0.0012217304902151227,0.003054326167330146,-0.00366519158706069
1679068258986309600,11.7873095703125,0,-0.00366519158706069,0.003054326167330146
1679068259006329600,11.80732958984375,-0.004886921960860491,0,-0.0024434609804302454
1679068259026226400,11.827226318359376,0.0024434609804302454,0.001832595793530345,0.0012217304902151227
1679068259046307600,11.8473076171875,0.003054326167330146,0.001832595793530345,-0.009162978269159794
1679068259067303400,11.868303466796876,0.0012217304902151227,0.0012217304902151227,0.0012217304902151227
1679068259088238600,11.889238525390626,-0.00366519158706069,-0.0006108652451075613,0.003054326167330146
1679068259108318500,11.909318359375,-0.0006108652451075613,-0.0012217304902151227,-0.0012217304902151227
1679068259129314600,11.930314453125,0.0024434609804302454,0,-0.00366519158706069
1679068259149334500,11.95033447265625,0.00427605677396059,-0.0006108652451075613,-0.00366519158706069
1679068259169051400,11.970051513671875,0.003054326167330146,0.00366519158706069,-0.001832595793530345
1679068259189314600,11.990314453125,0,-0.001832595793530345,-0.0024434609804302454
1679068259209334500,12.01033447265625,-0.0012217304902151227,-0.0024434609804302454,-0.0024434609804302454
1679068259229292500,12.03029248046875,-0.0006108652451075613,0,-0.006108652334660292
1679068259249312500,12.0503125,0.003054326167330146,0.004886921960860491,-0.0024434609804302454
1679068259269331500,12.07033154296875,0.00427605677396059,0.0024434609804302454,-0.00366519158706069
1679068259289290500,12.09029052734375,0,-0.0012217304902151227,0.004886921960860491
1679068259309309400,12.110309326171874,0,-0.005497787147760391,0
1679068259329329400,12.130329345703124,0.0012217304902151227,-0.005497787147760391,0.0012217304902151227
1679068259349287400,12.150287353515624,-0.0006108652451075613,-0.0006108652451075613,0.001832595793530345
1679068259370283500,12.171283447265624,0.00427605677396059,0.00427605677396059,-0.003054326167330146
1679068259390303500,12.191303466796874,0,-0.0006108652451075613,0.0006108652451075613
1679068259410322400,12.211322509765624,-0.0012217304902151227,0.003054326167330146,-0.0012217304902151227
1679068259430341600,12.231341552734374,0.0012217304902151227,-0.0024434609804302454,-0.0012217304902151227
1679068259450300400,12.251300537109374,0.001832595793530345,0.00427605677396059,-0.00427605677396059
1679068259470258400,12.271258544921874,-0.003054326167330146,-0.001832595793530345,-0.0012217304902151227
1679068259490339600,12.291339599609374,0.00366519158706069,-0.0006108652451075613,-0.005497787147760391
1679068259511335400,12.31233544921875,-0.001832595793530345,0.0012217304902151227,-0.003054326167330146
1679068259531293400,12.33229345703125,-0.0006108652451075613,0,-0.004886921960860491
1679068259552228600,12.353228515625,0.0006108652451075613,-0.005497787147760391,-0.00427605677396059
1679068259572309500,12.3733095703125,0.0006108652451075613,-0.0006108652451075613,0.001832595793530345
1679068259592328400,12.393328369140624,-0.0012217304902151227,0.0012217304902151227,-0.0012217304902151227
1679068259612287500,12.41328759765625,-0.00427605677396059,-0.004886921960860491,-0.0012217304902151227
1679068259632306400,12.433306396484374,-0.0012217304902151227,0.001832595793530345,0.003054326167330146
1679068259653302500,12.454302490234374,-0.0012217304902151227,-0.0024434609804302454,0.0024434609804302454
1679068259673322500,12.474322509765624,0.0006108652451075613,0.003054326167330146,-0.001832595793530345
1679068259693341400,12.494341552734374,-0.003054326167330146,-0.00366519158706069,0.006108652334660292
1679068259714337500,12.515337646484374,-0.0006108652451075613,0.0024434609804302454,-0.005497787147760391
1679068259734296600,12.535296630859374,0.001832595793530345,0.0006108652451075613,0
1679068259754315500,12.5553154296875,-0.0006108652451075613,0.0024434609804302454,-0.0024434609804302454
1679068259774335500,12.57533544921875,-0.003054326167330146,0.006108652334660292,-0.001832595793530345
1679068259794293500,12.59529345703125,0.0006108652451075613,0.0006108652451075613,-0.00366519158706069
1679068259814313500,12.6153134765625,0.0012217304902151227,-0.006108652334660292,0.0006108652451075613
1679068259834332400,12.63533251953125,-0.001832595793530345,-0.0012217304902151227,0.003054326167330146
1679068259854291500,12.65529150390625,0,-0.0024434609804302454,-0.001832595793530345
1679068259874310400,12.675310302734376,0.00427605677396059,0.00366519158706069,-0.0024434609804302454
1679068259894330600,12.69533056640625,-0.003054326167330146,0.0006108652451075613,0.001832595793530345
1679068259914227500,12.7152275390625,-0.0024434609804302454,-0.0006108652451075613,0.003054326167330146
1679068259934307600,12.7353076171875,0.0024434609804302454,0,-0.003054326167330146
1679068259954327600,12.75532763671875,0.0006108652451075613,0.0024434609804302454,-0.0012217304902151227
1679068259974285600,12.77528564453125,-0.001832595793530345,-0.0006108652451075613,-0.0006108652451075613
1679068259994305500,12.795305419921876,0.0012217304902151227,0.0024434609804302454,-0.0012217304902151227
1679068260014324500,12.815324462890626,0.0012217304902151227,0.003054326167330146,-0.001832595793530345
1679068260034283500,12.835283447265626,0.0006108652451075613,0.0006108652451075613,-0.0012217304902151227
1679068260054302500,12.855302490234376,-0.0006108652451075613,-0.0024434609804302454,0.0006108652451075613
1679068260074322400,12.875322509765626,0.0012217304902151227,0.003054326167330146,-0.00366519158706069
1679068260094341600,12.895341552734376,-0.0012217304902151227,0.0006108652451075613,0.0024434609804302454
1679068260114300400,12.915300537109376,-0.0024434609804302454,-0.00427605677396059,0.003054326167330146
1679068260134319600,12.935319580078126,-0.0012217304902151227,0.003054326167330146,-0.00366519158706069
1679068260154339600,12.955339599609376,0.0012217304902151227,0.00366519158706069,0.0006108652451075613
1679068260174239500,12.975239501953125,0.003054326167330146,-0.0006108652451075613,0.003054326167330146
1679068260194136600,12.995136474609374,-0.0012217304902151227,0.003054326167330146,-0.0024434609804302454
1679068260214339600,13.015339599609375,-0.0006108652451075613,0.0006108652451075613,-0.007941247895359993
1679068260234297600,13.035297607421874,-0.0006108652451075613,0,0.00366519158706069
1679068260254317600,13.055317626953125,-0.00427605677396059,0.0012217304902151227,-0.001832595793530345
1679068260274336500,13.07533642578125,-0.0006108652451075613,0.004886921960860491,0
1679068260294294500,13.09529443359375,0.001832595793530345,0.0024434609804302454,0.0012217304902151227
1679068260314314500,13.115314453125,-0.0006108652451075613,-0.0012217304902151227,-0.004886921960860491
1679068260334333400,13.13533349609375,0.0012217304902151227,0.004886921960860491,-0.0024434609804302454
1679068260354292500,13.15529248046875,-0.001832595793530345,0.0006108652451075613,0.004886921960860491
1679068260374311400,13.1753115234375,-0.0012217304902151227,-0.0024434609804302454,-0.00366519158706069
1679068260394270500,13.1952705078125,0.001832595793530345,-0.00427605677396059,0.003054326167330146
1679068260415327500,13.216327392578124,0,0,0.00366519158706069
1679068260435224600,13.236224609375,-0.00366519158706069,0.0012217304902151227,0.0006108652451075613
1679068260455305500,13.256305419921874,0.003054326167330146,0.0024434609804302454,0.001832595793530345
1679068260475324400,13.276324462890624,-0.001832595793530345,-0.00366519158706069,0.003054326167330146
1679068260496320500,13.297320556640624,-0.001832595793530345,-0.003054326167330146,-0.00366519158706069
1679068260516340500,13.317340576171874,-0.003054326167330146,-0.0012217304902151227,0.0024434609804302454
1679068260536298500,13.337298583984374,0.00366519158706069,0.003054326167330146,-0.0012217304902151227
1679068260556318500,13.357318359375,-0.0012217304902151227,0.0012217304902151227,0.0006108652451075613
1679068260576337400,13.37733740234375,-0.001832595793530345,0.00366519158706069,0.0006108652451075613
1679068260596235500,13.397235595703124,0.00366519158706069,0.0006108652451075613,0
1679068260616132600,13.417132568359374,-0.0024434609804302454,0.004886921960860491,0.001832595793530345
1679068260636335600,13.437335693359374,-0.0012217304902151227,0.001832595793530345,0.0012217304902151227
1679068260657331500,13.45833154296875,-0.0012217304902151227,0.00366519158706069,-0.003054326167330146
1679068260677289500,13.47828955078125,0.0024434609804302454,-0.003054326167330146,0.001832595793530345
1679068260697248500,13.49824853515625,0.0006108652451075613,-0.00427605677396059,0.0006108652451075613
1679068260717328600,13.51832861328125,-0.00366519158706069,0.0006108652451075613,0.0024434609804302454
1679068260737287400,13.538287353515624,-0.0012217304902151227,-0.0024434609804302454,0.0006108652451075613
1679068260757123600,13.55812353515625,0.0006108652451075613,-0.003054326167330146,0.001832595793530345
1679068260777325600,13.57832568359375,-0.0006108652451075613,0.005497787147760391,-0.001832595793530345
1679068260797284600,13.59828466796875,0,0.003054326167330146,0.0024434609804302454
1679068260818341600,13.619341552734374,0,-0.001832595793530345,0.0024434609804302454
1679068260839337500,13.64033740234375,0.001832595793530345,-0.001832595793530345,-0.001832595793530345
1679068260859295500,13.66029541015625,-0.001832595793530345,-0.0024434609804302454,0.0006108652451075613
1679068260879315500,13.6803154296875,0.0012217304902151227,0.006108652334660292,-0.00366519158706069
1679068260899334400,13.70033447265625,0.0012217304902151227,0.003054326167330146,-0.0012217304902151227
1679068260919232500,13.720232421875,0,0.0006108652451075613,0.001832595793530345
1679068260939312600,13.740312744140626,-0.001832595793530345,-0.001832595793530345,-0.004886921960860491
1679068260959332600,13.76033251953125,0.00427605677396059,-0.0006108652451075613,-0.00366519158706069
1679068260979290600,13.78029052734375,0,-0.0006108652451075613,0.005497787147760391
1679068260999310600,13.800310546875,0.0012217304902151227,0.00366519158706069,-0.003054326167330146
1679068261020245500,13.82124560546875,-0.0024434609804302454,0.0006108652451075613,-0.003054326167330146
1679068261042339600,13.843339599609376,-0.003054326167330146,-0.006108652334660292,0.00366519158706069
1679068261063335400,13.86433544921875,-0.0012217304902151227,0.005497787147760391,-0.004886921960860491
1679068261083294500,13.88429443359375,0.0006108652451075613,0.0024434609804302454,0
1679068261103313400,13.9043134765625,-0.00427605677396059,-0.0012217304902151227,0.005497787147760391
1679068261123333600,13.924333740234376,0.00366519158706069,0.00427605677396059,-0.006108652334660292
1679068261143291400,13.94429150390625,0,0.00366519158706069,0.0006108652451075613
1679068261163311600,13.9643115234375,-0.0024434609804302454,0.0012217304902151227,-0.001832595793530345
1679068261183333600,13.984333740234375,0,0.00427605677396059,-0.0012217304902151227
1679068261203291400,14.00429150390625,-0.0024434609804302454,0.003054326167330146,-0.0012217304902151227
1679068261223311600,14.0243115234375,0.001832595793530345,0.0012217304902151227,0.001832595793530345
1679068261243330600,14.04433056640625,-0.0006108652451075613,-0.003054326167330146,-0.0006108652451075613
1679068261263228400,14.064228515625,0.0024434609804302454,0.0012217304902151227,0.001832595793530345
1679068261284285400,14.085285400390624,0.001832595793530345,-0.003054326167330146,0.0024434609804302454
1679068261305281500,14.106281494140624,-0.0012217304902151227,0,0.00366519158706069
1679068261325300500,14.126300537109374,-0.001832595793530345,0.0006108652451075613,0.003054326167330146
1679068261345320400,14.146320556640624,-0.001832595793530345,0,-0.001832595793530345
1679068261366316500,14.167316650390624,-0.0012217304902151227,0.0012217304902151227,-0.001832595793530345
1679068261386335500,14.18733544921875,0.0006108652451075613,0.00366519158706069,-0.003054326167330146
1679068261406294500,14.20729443359375,-0.0024434609804302454,0.0006108652451075613,0
1679068261426313500,14.2273134765625,0.0006108652451075613,-0.0024434609804302454,0
1679068261446333400,14.24733349609375,0.00427605677396059,0.0006108652451075613,-0.00366519158706069
1679068261466291500,14.26729150390625,0,-0.003054326167330146,-0.0006108652451075613
1679068261486311400,14.2873115234375,0.001832595793530345,0.001832595793530345,0.00427605677396059
1679068261507307500,14.3083076171875,-0.00366519158706069,-0.00366519158706069,0.0006108652451075613
1679068261528303600,14.3293037109375,-0.0012217304902151227,0.001832595793530345,-0.0006108652451075613
1679068261548322600,14.349322509765624,-0.0012217304902151227,-0.00366519158706069,-0.001832595793530345
1679068261569318400,14.370318359375,-0.0024434609804302454,0.0006108652451075613,0.0024434609804302454
1679068261590314500,14.391314453125,0.003054326167330146,0.0006108652451075613,0.00366519158706069
1679068261610334500,14.41133447265625,0.0024434609804302454,0,0.0006108652451075613
1679068261630292500,14.43129248046875,-0.0024434609804302454,-0.001832595793530345,0.0012217304902151227
1679068261650312400,14.4513125,0,-0.0006108652451075613,0.0012217304902151227
1679068261670331400,14.471331298828124,-0.004886921960860491,-0.003054326167330146,-0.003054326167330146
1679068261690290400,14.49129052734375,0.0012217304902151227,-0.0006108652451075613,-0.0012217304902151227
1679068261710309600,14.5113095703125,-0.001832595793530345,-0.004886921960860491,-0.0012217304902151227
1679068261730267400,14.531267333984376,0.00366519158706069,0.00427605677396059,-0.005497787147760391
1679068261751141600,14.5521416015625,0,0.0012217304902151227,0.001832595793530345
1679068261771222500,14.572222412109374,0,-0.00427605677396059,0.005497787147760391
1679068261791302400,14.592302490234376,0.0024434609804302454,-0.0012217304902151227,0.0006108652451075613
1679068261812299500,14.613299560546874,-0.0006108652451075613,0,-0.001832595793530345
1679068261833295600,14.634295654296874,0,0.0012217304902151227,-0.0024434609804302454
1679068261853253600,14.654253662109374,0.003054326167330146,-0.003054326167330146,0.001832595793530345
1679068261874249500,14.67524951171875,0.0024434609804302454,-0.001832595793530345,-0.0006108652451075613
1679068261895245600,14.69624560546875,0.001832595793530345,-0.00366519158706069,0.001832595793530345
1679068261915265500,14.716265625,-0.001832595793530345,-0.00366519158706069,-0.00427605677396059
1679068261935284500,14.736284423828126,0.003054326167330146,-0.003054326167330146,-0.0006108652451075613
1679068261955304400,14.756304443359374,0.001832595793530345,0.0012217304902151227,-0.0012217304902151227
1679068261975323400,14.776323486328126,0.0012217304902151227,-0.00427605677396059,0.003054326167330146
1679068261995281400,14.796281494140626,0.001832595793530345,-0.0006108652451075613,0.00427605677396059
1679068262016339500,14.81733935546875,-0.003054326167330146,-0.001832595793530345,-0.001832595793530345
1679068262036297500,14.83729736328125,-0.0006108652451075613,0.0012217304902151227,-0.00366519158706069
1679068262056316400,14.85731640625,0.0012217304902151227,0.0024434609804302454,-0.0024434609804302454
1679068262076336600,14.877336669921876,0.001832595793530345,0.0012217304902151227,0.00366519158706069
1679068262097332500,14.89833251953125,0.00427605677396059,0.0012217304902151227,0
1679068262117290500,14.91829052734375,0.0012217304902151227,-0.003054326167330146,-0.0006108652451075613
1679068262138286600,14.93928662109375,-0.0006108652451075613,-0.00733038317412138,-0.0012217304902151227
1679068262158306600,14.959306640625,-0.0006108652451075613,-0.0012217304902151227,0.001832595793530345
1679068262178328600,14.97932861328125,-0.0006108652451075613,-0.00427605677396059,0.006108652334660292
1679068262198286600,14.99928662109375,-0.0006108652451075613,0.0006108652451075613,-0.0012217304902151227
1679068262218306600,15.019306640625,0,0.00427605677396059,0.0012217304902151227
1679068262238325500,15.039325439453124,-0.003054326167330146,-0.00366519158706069,0.00366519158706069
1679068262259321600,15.060321533203124,0.003054326167330146,-0.004886921960860491,-0.0006108652451075613
1679068262279341600,15.080341552734374,-0.003054326167330146,-0.005497787147760391,-0.0006108652451075613
1679068262299299600,15.100299560546874,-0.0012217304902151227,0.001832595793530345,-0.0006108652451075613
1679068262319319600,15.120319580078124,-0.0024434609804302454,-0.00427605677396059,0.00366519158706069
1679068262339338500,15.14033837890625,0.0024434609804302454,-0.005497787147760391,-0.0012217304902151227
1679068262359297500,15.160297607421874,0.0006108652451075613,-0.003054326167330146,0.00366519158706069
1679068262379316500,15.18031640625,-0.0012217304902151227,0.0006108652451075613,0.0006108652451075613
1679068262399336400,15.20033642578125,0,-0.006719517521560192,0.0024434609804302454
1679068262419294500,15.22029443359375,0.00366519158706069,0.0006108652451075613,-0.003054326167330146
1679068262440290600,15.24129052734375,0.0012217304902151227,-0.004886921960860491,-0.003054326167330146
1679068262460310500,15.261310546875,0.00427605677396059,0.0024434609804302454,-0.001832595793530345
1679068262480329500,15.28132958984375,-0.006108652334660292,0,0.00427605677396059
1679068262500288500,15.30128857421875,0.0006108652451075613,-0.0006108652451075613,0.001832595793530345
1679068262520307500,15.321307373046874,0.0024434609804302454,-0.0012217304902151227,0.0024434609804302454
1679068262540327400,15.341327392578124,-0.00366519158706069,0.0006108652451075613,-0.0012217304902151227
1679068262560285400,15.361285400390624,0,0.0006108652451075613,0.0006108652451075613
1679068262580304600,15.3813046875,-0.0024434609804302454,0.0012217304902151227,-0.00427605677396059
1679068262600324600,15.40132470703125,0.001832595793530345,-0.003054326167330146,0.001832595793530345
1679068262620282600,15.42128271484375,0.003054326167330146,0.001832595793530345,0.0006108652451075613
1679068262641339400,15.44233935546875,-0.0006108652451075613,-0.0006108652451075613,0.00427605677396059
1679068262661298400,15.46229833984375,0.0024434609804302454,0.0006108652451075613,0.006108652334660292
1679068262681317600,15.482317626953124,0.001832595793530345,0.005497787147760391,0
1679068262702313500,15.5033134765625,-0.001832595793530345,0.001832595793530345,0.003054326167330146
1679068262722333400,15.52333349609375,-0.00427605677396059,-0.003054326167330146,0.005497787147760391
1679068262742291500,15.54329150390625,0.0006108652451075613,0.0024434609804302454,0.003054326167330146
1679068262764325600,15.56532568359375,0,-0.0006108652451075613,0.0024434609804302454
1679068262784283400,15.585283447265626,-0.0012217304902151227,-0.005497787147760391,0.0024434609804302454
1679068262804303600,15.6053037109375,0,-0.00427605677396059,-0.0024434609804302454
1679068262824322600,15.625322509765626,0.0024434609804302454,0.0024434609804302454,0
1679068262844281600,15.645281494140624,0.0024434609804302454,-0.0012217304902151227,0.001832595793530345
1679068262864300500,15.665300537109376,0.0012217304902151227,0.001832595793530345,-0.00366519158706069
1679068262884259600,15.685259521484374,0.0006108652451075613,-0.0006108652451075613,0.001832595793530345
1679068262905316600,15.706316650390624,0.001832595793530345,-0.0024434609804302454,-0.00366519158706069
1679068262925335600,15.72633544921875,0.0006108652451075613,-0.0006108652451075613,0.0006108652451075613
1679068262946331400,15.747331298828126,0.0012217304902151227,0.001832595793530345,-0.003054326167330146
1679068262966290400,15.76729052734375,-0.00427605677396059,-0.0024434609804302454,0.0006108652451075613
1679068262986309600,15.7873095703125,0.001832595793530345,-0.003054326167330146,0.0006108652451075613
1679068263008282600,15.80928271484375,0.0024434609804302454,0,0
1679068263028301600,15.829301513671876,0.00366519158706069,-0.0006108652451075613,0.0006108652451075613
1679068263048260600,15.849260498046876,0.0024434609804302454,0,-0.001832595793530345
1679068263068279600,15.869279541015626,-0.0006108652451075613,-0.005497787147760391,0.00366519158706069
1679068263088299500,15.889299560546876,-0.0012217304902151227,0,-0.00427605677396059
1679068263108318500,15.909318359375,0,0.0024434609804302454,-0.0024434609804302454
1679068263128338400,15.92933837890625,0.005497787147760391,-0.0006108652451075613,-0.003054326167330146
1679068263148296400,15.94929638671875,0.0012217304902151227,0.003054326167330146,0.0006108652451075613
1679068263168257500,15.969257568359374,-0.0024434609804302454,-0.0006108652451075613,0.00366519158706069
1679068263188338400,15.98933837890625,0,-0.001832595793530345,0.001832595793530345
1679068263208296400,16.00929638671875,0.0012217304902151227,0.0012217304902151227,-0.0006108652451075613
1679068263228316400,16.02931640625,-0.0006108652451075613,-0.001832595793530345,-0.00427605677396059
1679068263248335600,16.049335693359374,0.0006108652451075613,0.0024434609804302454,0
1679068263268294400,16.06929443359375,0.0006108652451075613,-0.00366519158706069,0.00366519158706069
1679068263288313600,16.089313720703124,0.0006108652451075613,0.001832595793530345,-0.0006108652451075613
1679068263308271600,16.109271728515626,0.0012217304902151227,-0.0006108652451075613,0.0024434609804302454
1679068263328291600,16.12929150390625,0,-0.003054326167330146,0.0012217304902151227
1679068263348310500,16.149310546875,-0.00366519158706069,-0.0006108652451075613,0.001832595793530345
1679068263368330500,16.16933056640625,-0.0024434609804302454,-0.0012217304902151227,0
1679068263389326600,16.19032666015625,0,-0.003054326167330146,-0.001832595793530345
1679068263409284600,16.21028466796875,0.0012217304902151227,-0.0006108652451075613,-0.003054326167330146
1679068263429304600,16.2303046875,-0.0006108652451075613,-0.0024434609804302454,0.001832595793530345
1679068263449323500,16.250323486328124,-0.0012217304902151227,-0.0012217304902151227,0.0024434609804302454
1679068263469282600,16.270282470703126,-0.001832595793530345,-0.0006108652451075613,0.001832595793530345
1679068263489301500,16.290301513671874,0.00427605677396059,0.006719517521560192,-0.00366519158706069
1679068263509321500,16.310321533203126,0,0.0024434609804302454,-0.003054326167330146
1679068263529340400,16.33034033203125,0.0006108652451075613,-0.0006108652451075613,0.0006108652451075613
1679068263549299500,16.350299560546876,0.0006108652451075613,-0.0006108652451075613,-0.006108652334660292
1679068263569257500,16.370257568359374,0.001832595793530345,0.0012217304902151227,0.00427605677396059
1679068263589338600,16.390338623046876,0.0006108652451075613,0.001832595793530345,0.0006108652451075613
1679068263609296600,16.410296630859374,0,0.001832595793530345,-0.004886921960860491
1679068263629132500,16.430132568359376,0.00427605677396059,0.001832595793530345,0.001832595793530345
1679068263649335600,16.45033544921875,0.0012217304902151227,0,-0.0012217304902151227
1679068263669294600,16.470294677734376,0.00366519158706069,0.00366519158706069,-0.0024434609804302454
1679068263689313500,16.4903134765625,-0.0024434609804302454,0.004886921960860491,-0.006719517521560192
1679068263709271600,16.510271484375,0.0024434609804302454,-0.0006108652451075613,0.0012217304902151227
1679068263729291500,16.53029150390625,0,-0.001832595793530345,0.0024434609804302454
1679068263749310500,16.550310546875,0.001832595793530345,-0.003054326167330146,-0.001832595793530345
1679068263769330400,16.570330322265626,-0.001832595793530345,-0.0006108652451075613,-0.001832595793530345
1679068263789288400,16.590288330078124,0.0012217304902151227,-0.0006108652451075613,0.00366519158706069
1679068263810284500,16.611284423828124,-0.0012217304902151227,0.0006108652451075613,0
1679068263830304500,16.631304443359376,0.0012217304902151227,-0.001832595793530345,-0.004886921960860491
1679068263850323500,16.651323486328124,-0.001832595793530345,0.001832595793530345,-0.003054326167330146
1679068263870282500,16.671282470703126,0.00366519158706069,-0.00427605677396059,0.003054326167330146
1679068263891217400,16.692217529296876,-0.00366519158706069,0.001832595793530345,-0.00427605677396059
1679068263911297500,16.712297607421874,0.0024434609804302454,0.00366519158706069,-0.006719517521560192
1679068263931317500,16.7323173828125,0.0012217304902151227,-0.0012217304902151227,-0.003054326167330146
1679068263951336400,16.75233642578125,0.00427605677396059,-0.0012217304902151227,-0.0024434609804302454
1679068263971295500,16.77229541015625,0,0.003054326167330146,-0.006108652334660292
1679068263991314400,16.792314453125,-0.0012217304902151227,0.0024434609804302454,-0.003054326167330146
1679068264011334400,16.81233447265625,0.00427605677396059,0.0006108652451075613,-0.00366519158706069
1679068264031292400,16.83229248046875,0.0006108652451075613,-0.0012217304902151227,0.0006108652451075613
1679068264051312600,16.852312744140626,0.003054326167330146,0.0006108652451075613,0
1679068264071331600,16.87233154296875,-0.0006108652451075613,-0.003054326167330146,0.0012217304902151227
1679068264091290600,16.89229052734375,-0.001832595793530345,-0.001832595793530345,0.004886921960860491
1679068264111309600,16.9123095703125,-0.003054326167330146,0.00427605677396059,0.0006108652451075613
1679068264131267600,16.932267578125,-0.0012217304902151227,0.00366519158706069,0.001832595793530345
1679068264153301500,16.954301513671876,0,0.0006108652451075613,0
1679068264174239500,16.975239501953126,0.00427605677396059,0.006108652334660292,0
1679068264194319600,16.995319580078124,-0.0024434609804302454,-0.0024434609804302454,0.0006108652451075613
1679068264214339600,17.015339599609376,0.0024434609804302454,-0.0024434609804302454,-0.0012217304902151227
1679068264234297600,17.035297607421874,-0.0012217304902151227,0.0006108652451075613,0.0006108652451075613
1679068264254317600,17.055317626953126,0.0012217304902151227,0.00366519158706069,-0.00427605677396059
1679068264274336500,17.07533642578125,0.003054326167330146,0.00427605677396059,-0.004886921960860491
1679068264295332600,17.09633251953125,-0.0006108652451075613,-0.001832595793530345,0.00366519158706069
1679068264316328400,17.117328369140626,0.0024434609804302454,-0.003054326167330146,-0.0024434609804302454
1679068264336226600,17.1372265625,-0.0006108652451075613,0.0012217304902151227,-0.0024434609804302454
1679068264356306400,17.157306396484376,0.0006108652451075613,-0.001832595793530345,0.00427605677396059
1679068264376326400,17.177326416015624,0,-0.0006108652451075613,0.003054326167330146
1679068264396284400,17.197284423828126,0.001832595793530345,0.00366519158706069,-0.001832595793530345
1679068264417341400,17.218341552734376,0.004886921960860491,0.00366519158706069,-0.0012217304902151227
1679068264437299500,17.238299560546874,0.001832595793530345,0,-0.001832595793530345
1679068264458296600,17.259296630859374,-0.0006108652451075613,-0.001832595793530345,-0.0012217304902151227
1679068264478315500,17.2793154296875,0.0006108652451075613,-0.003054326167330146,-0.0012217304902151227
1679068264498334500,17.29933447265625,-0.001832595793530345,0.0012217304902151227,0
1679068264518293500,17.31929345703125,-0.0006108652451075613,0.0006108652451075613,0.0024434609804302454
1679068264538312400,17.3393125,0.003054326167330146,-0.0012217304902151227,0.00366519158706069
1679068264558332400,17.35933251953125,0.0006108652451075613,0.0012217304902151227,-0.001832595793530345
1679068264578290400,17.37929052734375,-0.001832595793530345,0.001832595793530345,-0.005497787147760391
1679068264598310400,17.399310302734374,0,0.001832595793530345,0.0006108652451075613
1679068264618329600,17.41932958984375,0.0024434609804302454,-0.003054326167330146,0.001832595793530345
1679068264638288600,17.43928857421875,-0.001832595793530345,-0.003054326167330146,0.006719517521560192
1679068264658307600,17.4593076171875,0.00366519158706069,0.001832595793530345,0.0006108652451075613
1679068264679303400,17.480303466796876,-0.001832595793530345,-0.00427605677396059,0
1679068264699323400,17.500323486328124,-0.001832595793530345,-0.0006108652451075613,-0.0006108652451075613
1679068264720319500,17.521319580078124,0.0006108652451075613,0.00366519158706069,-0.003054326167330146
1679068264740338400,17.54133837890625,0.0006108652451075613,0.001832595793530345,-0.003054326167330146
1679068264760297500,17.56129736328125,-0.0006108652451075613,0.001832595793530345,-0.00366519158706069
1679068264780316400,17.58131640625,0.0006108652451075613,0.003054326167330146,-0.0024434609804302454
1679068264800336600,17.601336669921874,0,0,-0.003054326167330146
1679068264820294400,17.62129443359375,0.0006108652451075613,0,0.0012217304902151227
1679068264840314600,17.641314697265624,0.001832595793530345,0.0012217304902151227,-0.00366519158706069
1679068264860333600,17.66133349609375,0.001832595793530345,0.009162978269159794,-0.001832595793530345
1679068264880292600,17.681292724609374,0.0024434609804302454,0.0024434609804302454,-0.001832595793530345
1679068264900311600,17.7013115234375,0.001832595793530345,0.0012217304902151227,0.0012217304902151227
1679068264922284500,17.723284423828126,-0.0024434609804302454,0,-0.0006108652451075613
1679068264942242600,17.74324267578125,-0.0012217304902151227,0,-0.0012217304902151227
1679068264963299600,17.764299560546874,0.0012217304902151227,0,0.001832595793530345
1679068264983319600,17.784319580078126,0.001832595793530345,0.001832595793530345,-0.0024434609804302454
1679068265003338500,17.80433837890625,0,0.0006108652451075613,-0.003054326167330146
1679068265023297500,17.824297607421876,-0.0006108652451075613,0,0.0012217304902151227
1679068265043316500,17.84431640625,0,-0.005497787147760391,0.0006108652451075613
1679068265063335400,17.86433544921875,-0.0012217304902151227,0,0.0006108652451075613
1679068265083294500,17.88429443359375,0.001832595793530345,0.003054326167330146,0.0024434609804302454
1679068265103313400,17.9043134765625,-0.0024434609804302454,0.0006108652451075613,0.006719517521560192
1679068265123333600,17.924333740234374,0.0024434609804302454,0.0006108652451075613,0.005497787147760391
1679068265143291400,17.94429150390625,-0.0024434609804302454,0.0024434609804302454,0.003054326167330146
1679068265163311600,17.9643115234375,-0.0006108652451075613,0.003054326167330146,0.0012217304902151227
1679068265183333600,17.984333740234376,0.0006108652451075613,-0.0024434609804302454,0.00366519158706069
1679068265203291400,18.00429150390625,-0.0024434609804302454,-0.003054326167330146,0.004886921960860491
1679068265223311600,18.0243115234375,-0.0006108652451075613,-0.001832595793530345,0.0024434609804302454
1679068265243330600,18.04433056640625,0.001832595793530345,-0.001832595793530345,0.0012217304902151227
1679068265263289600,18.06428955078125,-0.0012217304902151227,-0.0012217304902151227,0.00366519158706069
1679068265283308500,18.08430859375,-0.0012217304902151227,-0.004886921960860491,-0.0012217304902151227
1679068265303328500,18.10432861328125,-0.0006108652451075613,-0.001832595793530345,-0.0012217304902151227
1679068265324324600,18.12532470703125,0.003054326167330146,0.0024434609804302454,-0.003054326167330146
1679068265344282600,18.14528271484375,0.0006108652451075613,0.0012217304902151227,-0.0012217304902151227
1679068265364302600,18.165302490234374,-0.00427605677396059,-0.003054326167330146,0.00366519158706069
1679068265384321500,18.185321533203126,-0.0006108652451075613,-0.00427605677396059,-0.001832595793530345
1679068265405256400,18.20625634765625,0.003054326167330146,0.00366519158706069,-0.00427605677396059
1679068265425337600,18.226337646484374,0.0012217304902151227,-0.003054326167330146,0.00366519158706069
1679068265446150400,18.247150390625,-0.0006108652451075613,0,-0.0006108652451075613
1679068265467329500,18.26832958984375,0,0.003054326167330146,-0.0006108652451075613
1679068265487287600,18.28828759765625,0.001832595793530345,0.00366519158706069,0.0012217304902151227
1679068265507307500,18.3083076171875,0,-0.0006108652451075613,0.001832595793530345
1679068265527326500,18.328326416015624,-0.001832595793530345,-0.001832595793530345,0.00427605677396059
1679068265547285500,18.348285400390626,0,-0.00366519158706069,-0.0024434609804302454
1679068265568342500,18.369342529296876,-0.001832595793530345,-0.0012217304902151227,0.003054326167330146
1679068265589338600,18.390338623046876,-0.003054326167330146,0.0012217304902151227,0.001832595793530345
1679068265609235500,18.4102353515625,-0.006108652334660292,-0.005497787147760391,0.005497787147760391
1679068265629316600,18.430316650390626,-0.0006108652451075613,-0.0024434609804302454,-0.001832595793530345
1679068265649274600,18.450274658203124,0.0024434609804302454,0.00427605677396059,-0.001832595793530345
1679068265669294600,18.470294677734376,-0.0012217304902151227,-0.0006108652451075613,0.001832595793530345
1679068265689313500,18.4903134765625,-0.0024434609804302454,0.0006108652451075613,0
1679068265709332500,18.51033251953125,-0.004886921960860491,0.0012217304902151227,0.004886921960860491
1679068265730267400,18.531267333984374,0.0012217304902151227,0.0006108652451075613,-0.0012217304902151227
1679068265751325400,18.552325439453124,-0.0006108652451075613,-0.0024434609804302454,-0.0006108652451075613
1679068265772321500,18.573321533203124,-0.00427605677396059,0,0.0006108652451075613
1679068265792340500,18.593340576171876,-0.001832595793530345,-0.0012217304902151227,0.00366519158706069
1679068265812299500,18.613299560546874,0.0024434609804302454,-0.003054326167330146,0.0012217304902151227
1679068265832318500,18.633318359375,0,0.0006108652451075613,-0.003054326167330146
1679068265852337400,18.65333740234375,0.001832595793530345,0,-0.0024434609804302454
1679068265872296400,18.67329638671875,0,-0.0024434609804302454,-0.0024434609804302454
1679068265892315400,18.6933154296875,0.0006108652451075613,0.001832595793530345,0.0012217304902151227
1679068265913311500,18.7143115234375,0.001832595793530345,-0.00427605677396059,-0.00427605677396059
1679068265933331500,18.73433154296875,0.00366519158706069,0.0024434609804302454,-0.0024434609804302454
1679068265953289500,18.75428955078125,-0.0012217304902151227,0.0012217304902151227,-0.0012217304902151227
1679068265973248500,18.77424853515625,0.00366519158706069,0.0024434609804302454,-0.006719517521560192
1679068265993328600,18.79432861328125,0.00427605677396059,0.003054326167330146,0.0006108652451075613
1679068266013287400,18.814287353515624,-0.001832595793530345,-0.00366519158706069,0.004886921960860491
1679068266033306600,18.834306640625,0.0024434609804302454,0.00366519158706069,0.0006108652451075613
1679068266053326600,18.85432666015625,0.00733038317412138,0.00427605677396059,-0.0024434609804302454
1679068266073284600,18.87428466796875,-0.0024434609804302454,0.003054326167330146,-0.0024434609804302454
1679068266093304600,18.8943046875,-0.0006108652451075613,-0.0012217304902151227,0.00733038317412138
1679068266113323500,18.914323486328126,-0.0006108652451075613,0.0024434609804302454,-0.00427605677396059
1679068266133282600,18.934282470703124,-0.0024434609804302454,-0.0006108652451075613,0.0012217304902151227
1679068266153240600,18.954240478515626,-0.0012217304902151227,0.0006108652451075613,0.0024434609804302454
1679068266174239500,18.975239501953126,0.0024434609804302454,-0.004886921960860491,-0.0012217304902151227
1679068266194319600,18.995319580078124,0.001832595793530345,0.00427605677396059,0.00427605677396059
1679068266215315500,19.0163154296875,0.00427605677396059,0.0024434609804302454,-0.00427605677396059
1679068266235335400,19.03633544921875,0.00427605677396059,-0.003054326167330146,0.0024434609804302454
1679068266255293400,19.05629345703125,-0.0006108652451075613,-0.001832595793530345,0
1679068266275313400,19.0763134765625,0.0012217304902151227,0.001832595793530345,0.0006108652451075613
1679068266295332600,19.09633251953125,-0.003054326167330146,-0.0024434609804302454,0.00427605677396059
1679068266315291400,19.11629150390625,0.00366519158706069,0,-0.003054326167330146
1679068266335249400,19.13624951171875,-0.0012217304902151227,0,0.00366519158706069
1679068266355329500,19.15632958984375,0.0006108652451075613,0.0012217304902151227,0.0024434609804302454
1679068266375288600,19.17628857421875,-0.0006108652451075613,-0.0006108652451075613,0
1679068266395307500,19.1963076171875,0,0.0024434609804302454,-0.0024434609804302454
1679068266415327500,19.216327392578126,0,0.003054326167330146,-0.00366519158706069
1679068266436323600,19.237323486328126,-0.0006108652451075613,0,0
1679068266456281600,19.257281494140624,0.00427605677396059,0.006719517521560192,-0.0006108652451075613
1679068266476301600,19.277301513671876,0.0024434609804302454,-0.0006108652451075613,0
1679068266497297400,19.29829736328125,-0.0024434609804302454,0.0006108652451075613,0
1679068266517255400,19.31825537109375,0,0.001832595793530345,-0.00366519158706069
1679068266537336600,19.338336669921876,0.0006108652451075613,0.004886921960860491,-0.0006108652451075613
1679068266557294600,19.358294677734374,-0.0024434609804302454,-0.00366519158706069,-0.00366519158706069
1679068266577314600,19.378314453125,0,0.0006108652451075613,0.003054326167330146
1679068266597333500,19.39833349609375,0.001832595793530345,0.0024434609804302454,-0.0006108652451075613
1679068266617292500,19.41829248046875,0,-0.003054326167330146,0
1679068266637250600,19.43825048828125,-0.001832595793530345,-0.003054326167330146,0
1679068266657331500,19.45833154296875,0.003054326167330146,0.003054326167330146,-0.004886921960860491
1679068266677289500,19.47828955078125,-0.00366519158706069,0.0024434609804302454,-0.0006108652451075613
1679068266697309400,19.498309326171874,-0.00366519158706069,-0.0024434609804302454,0.00366519158706069
1679068266718305500,19.519305419921874,0.0024434609804302454,-0.0006108652451075613,0
1679068266740338400,19.54133837890625,-0.001832595793530345,-0.001832595793530345,0.003054326167330146
1679068266760297500,19.56129736328125,-0.0006108652451075613,0.0012217304902151227,0.001832595793530345
1679068266781293600,19.58229345703125,-0.001832595793530345,-0.007941247895359993,0.003054326167330146
1679068266801312500,19.6023125,0,0.0006108652451075613,-0.0006108652451075613
1679068266821332500,19.62233251953125,-0.0006108652451075613,-0.0024434609804302454,-0.0024434609804302454
1679068266841290500,19.64229052734375,-0.0012217304902151227,0.00427605677396059,-0.004886921960860491
1679068266861310500,19.662310546875,0.0024434609804302454,0.001832595793530345,-0.00427605677396059
1679068266881329400,19.682329345703124,-0.001832595793530345,-0.001832595793530345,-0.006719517521560192
1679068266901288400,19.702288330078126,0,-0.0012217304902151227,-0.001832595793530345
1679068266921307400,19.722307373046874,0.003054326167330146,0.0024434609804302454,-0.0024434609804302454
1679068266941265400,19.742265380859376,-0.0024434609804302454,-0.001832595793530345,0.001832595793530345
1679068266961285600,19.76228564453125,0.0006108652451075613,0.004886921960860491,-0.0012217304902151227
1679068266981304600,19.7823046875,0,0.001832595793530345,-0.0024434609804302454
1679068267001324500,19.802324462890624,0.0006108652451075613,0.0006108652451075613,-0.001832595793530345
1679068267022320600,19.823320556640624,-0.0006108652451075613,0.00366519158706069,-0.0006108652451075613
1679068267043316500,19.84431640625,0.0006108652451075613,-0.0006108652451075613,-0.005497787147760391
1679068267063335400,19.86433544921875,0,0.005497787147760391,0
1679068267083294500,19.88429443359375,0.0024434609804302454,0.001832595793530345,-0.0006108652451075613
1679068267103313400,19.9043134765625,0.003054326167330146,-0.0006108652451075613,-0.003054326167330146
1679068267123333600,19.924333740234374,0.003054326167330146,0.0024434609804302454,-0.004886921960860491
1679068267143291400,19.94429150390625,0.0012217304902151227,0.004886921960860491,-0.00366519158706069
1679068267163311600,19.9643115234375,0,0.0006108652451075613,0.0024434609804302454
1679068267184309500,19.9853095703125,0.003054326167330146,0.001832595793530345,-0.003054326167330146
1679068267204329500,20.00532958984375,0.0012217304902151227,0.0024434609804302454,0.00366519158706069
1679068267224287500,20.02528759765625,0.006719517521560192,-0.0012217304902151227,0.005497787147760391
1679068267245283600,20.04628369140625,-0.001832595793530345,0.0012217304902151227,-0.001832595793530345
1679068267265303600,20.066303466796874,0.003054326167330146,0.00366519158706069,-0.00427605677396059
1679068267285322500,20.086322509765626,0.0006108652451075613,0.00427605677396059,-0.0012217304902151227
1679068267305281500,20.106281494140624,-0.0024434609804302454,0.003054326167330146,-0.001832595793530345
1679068267325300500,20.126300537109376,-0.00366519158706069,-0.00427605677396059,0.0024434609804302454
1679068267345320400,20.146320556640624,-0.0006108652451075613,-0.0012217304902151227,0.001832595793530345
1679068267365339400,20.16633935546875,0.0006108652451075613,-0.006108652334660292,0.0024434609804302454
1679068267385298400,20.18629833984375,-0.0024434609804302454,0,-0.0006108652451075613
1679068267405256400,20.20625634765625,0.0006108652451075613,-0.0024434609804302454,-0.0024434609804302454
1679068267425337600,20.226337646484374,0.0006108652451075613,-0.0006108652451075613,0.0012217304902151227
1679068267445295600,20.246295654296876,-0.0006108652451075613,0.0024434609804302454,-0.003054326167330146
1679068267466230500,20.26723046875,0.0012217304902151227,0.0006108652451075613,0
1679068267486311400,20.2873115234375,0,-0.0024434609804302454,0.00427605677396059
1679068267507307500,20.3083076171875,-0.0012217304902151227,0.0006108652451075613,0.0006108652451075613
1679068267528303600,20.3293037109375,0.001832595793530345,0.0024434609804302454,-0.005497787147760391
1679068267548322600,20.349322509765624,-0.0006108652451075613,-0.006108652334660292,-0.0012217304902151227
1679068267569318400,20.370318359375,-0.0006108652451075613,-0.001832595793530345,0.0024434609804302454
1679068267589338600,20.390338623046876,-0.0024434609804302454,0.001832595793530345,0.00427605677396059
1679068267609296600,20.410296630859374,0,0.003054326167330146,0.00427605677396059
1679068267629316600,20.430316650390626,0.0006108652451075613,-0.0012217304902151227,-0.005497787147760391
1679068267649335600,20.45033544921875,0.003054326167330146,0.0012217304902151227,0
1679068267669294600,20.470294677734376,-0.00427605677396059,-0.001832595793530345,-0.0006108652451075613
1679068267689313500,20.4903134765625,-0.003054326167330146,-0.0024434609804302454,0.0024434609804302454
1679068267709332500,20.51033251953125,0.0006108652451075613,0.0006108652451075613,-0.005497787147760391
1679068267729291500,20.53029150390625,0.0006108652451075613,-0.0006108652451075613,0.0006108652451075613
1679068267749310500,20.550310546875,-0.0006108652451075613,0.00366519158706069,-0.003054326167330146
1679068267769330400,20.570330322265626,0,0.001832595793530345,-0.001832595793530345
1679068267789288400,20.590288330078124,0.001832595793530345,-0.0024434609804302454,0.00366519158706069
1679068267809308400,20.610308349609376,-0.003054326167330146,0,0.0012217304902151227
1679068267829327600,20.63032763671875,-0.0012217304902151227,-0.005497787147760391,0.0012217304902151227
1679068267849286400,20.650286376953126,0.001832595793530345,0.001832595793530345,-0.0012217304902151227
1679068267869305600,20.6703056640625,0.0006108652451075613,0.0012217304902151227,-0.0024434609804302454
1679068267889325600,20.69032568359375,-0.004886921960860491,0.0012217304902151227,-0.0024434609804302454
1679068267909283600,20.71028369140625,0.0006108652451075613,-0.00427605677396059,0.003054326167330146
1679068267929303600,20.730303466796876,-0.0006108652451075613,-0.0012217304902151227,-0.0006108652451075613
1679068267949322500,20.750322509765624,-0.0006108652451075613,0.0006108652451075613,0.0012217304902151227
1679068267969342500,20.770342529296876,-0.0006108652451075613,0.00366519158706069,-0.0012217304902151227
1679068267989300500,20.790300537109374,-0.0006108652451075613,-0.0012217304902151227,0.001832595793530345
1679068268009320400,20.810320556640626,0,0.0006108652451075613,0.0006108652451075613
1679068268030316500,20.831316650390626,0.0006108652451075613,0,0.001832595793530345
1679068268050335500,20.85133544921875,0.0012217304902151227,0.003054326167330146,-0.00366519158706069
1679068268070293500,20.87129345703125,-0.006108652334660292,-0.003054326167330146,0.00427605677396059
1679068268090313500,20.8913134765625,0.001832595793530345,-0.001832595793530345,0.0006108652451075613
1679068268110332400,20.91133251953125,0.0006108652451075613,0.0024434609804302454,-0.00366519158706069
1679068268130291500,20.93129150390625,0,-0.0024434609804302454,0.00427605677396059
1679068268150310400,20.951310302734374,0.0006108652451075613,-0.003054326167330146,0.0012217304902151227
1679068268170271500,20.971271484375,0.001832595793530345,-0.0024434609804302454,0.0006108652451075613
1679068268190291500,20.99129150390625,-0.0006108652451075613,0.005497787147760391,0.0006108652451075613
1679068268211287600,21.01228759765625,0,-0.001832595793530345,-0.003054326167330146
1679068268231306500,21.032306396484376,-0.001832595793530345,0.00366519158706069,-0.0024434609804302454
1679068268251326500,21.052326416015624,-0.003054326167330146,-0.006108652334660292,0.001832595793530345
1679068268271223600,21.0722236328125,0.0006108652451075613,0,0.0012217304902151227
1679068268292341500,21.093341552734376,0,0.0012217304902151227,0.0024434609804302454
1679068268313337600,21.114337646484376,0.001832595793530345,0.0024434609804302454,0.003054326167330146
1679068268333296600,21.134296630859374,0.0006108652451075613,-0.0012217304902151227,0.001832595793530345
1679068268353315600,21.154315673828126,-0.0006108652451075613,0.001832595793530345,-0.0024434609804302454
1679068268373335600,21.17433544921875,-0.0012217304902151227,0.003054326167330146,0.001832595793530345
1679068268393293600,21.19429345703125,-0.003054326167330146,-0.006108652334660292,-0.0012217304902151227
1679068268413313500,21.2143134765625,-0.0012217304902151227,-0.003054326167330146,-0.003054326167330146
1679068268433332500,21.23433251953125,0,0.0006108652451075613,0.0006108652451075613
1679068268453291500,21.25429150390625,-0.0006108652451075613,-0.005497787147760391,-0.0006108652451075613
1679068268473310500,21.274310546875,0,-0.003054326167330146,0.004886921960860491
1679068268493330400,21.294330322265626,0.00427605677396059,-0.006108652334660292,0.0006108652451075613
1679068268513288400,21.314288330078124,-0.0006108652451075613,0.001832595793530345,-0.0006108652451075613
1679068268533308400,21.334308349609376,0.0012217304902151227,-0.01038470957428217,0.00855211354792118
1679068268553327600,21.35432763671875,-0.003054326167330146,-0.0006108652451075613,0
1679068268573285600,21.37428564453125,0,-0.00366519158706069,0.0006108652451075613
1679068268593244400,21.394244384765624,0.0006108652451075613,0.001832595793530345,0.0006108652451075613
1679068268613141500,21.4141416015625,0.0006108652451075613,0.0012217304902151227,-0.001832595793530345
1679068268633283600,21.43428369140625,0,0.001832595793530345,-0.001832595793530345
1679068268653302500,21.454302490234376,0,-0.003054326167330146,0.001832595793530345
1679068268674298600,21.475298583984376,0.0006108652451075613,-0.0012217304902151227,-0.0006108652451075613
1679068268696332500,21.49733251953125,0.0024434609804302454,-0.0012217304902151227,0.0006108652451075613
1679068268718305500,21.519305419921874,-0.0006108652451075613,-0.0012217304902151227,0.001832595793530345
1679068268739301600,21.540301513671874,0.0024434609804302454,0.00366519158706069,-0.004886921960860491
1679068268760297500,21.56129736328125,0.00366519158706069,0.0024434609804302454,0.0024434609804302454
1679068268780316400,21.58131640625,0.00366519158706069,0.0024434609804302454,-0.003054326167330146
1679068268800336600,21.601336669921874,-0.0006108652451075613,0.00366519158706069,-0.006108652334660292
1679068268822308600,21.62330859375,0.001832595793530345,-0.00427605677396059,-0.00366519158706069
1679068268843304400,21.644304443359374,0.00366519158706069,-0.001832595793530345,-0.0024434609804302454
1679068268864300500,21.665300537109374,0.0024434609804302454,0.004886921960860491,-0.006108652334660292
1679068268884320500,21.685320556640626,-0.0012217304902151227,-0.0024434609804302454,0.007941247895359993
1679068268904278500,21.705278564453124,0.001832595793530345,-0.003054326167330146,-0.0012217304902151227
1679068268924298500,21.725298583984376,-0.0006108652451075613,-0.0012217304902151227,-0.00427605677396059
1679068268945294600,21.746294677734376,-0.00366519158706069,0.00366519158706069,-0.00366519158706069
1679068268965313500,21.7663134765625,0.0012217304902151227,-0.0024434609804302454,-0.0012217304902151227
1679068268986309600,21.7873095703125,-0.0024434609804302454,-0.001832595793530345,-0.0012217304902151227
1679068269006329600,21.80732958984375,0.0006108652451075613,0.003054326167330146,0.0006108652451075613
1679068269026287600,21.82728759765625,-0.003054326167330146,0.003054326167330146,0.0006108652451075613
1679068269047283500,21.848283447265626,0.003054326167330146,0.00366519158706069,0.001832595793530345
1679068269067303400,21.868303466796874,0.0012217304902151227,-0.0024434609804302454,-0.00366519158706069
1679068269087139600,21.8881396484375,0.004886921960860491,0.0006108652451075613,-0.001832595793530345
1679068269107281400,21.908281494140624,0.0012217304902151227,0.0006108652451075613,-0.003054326167330146
1679068269128338400,21.92933837890625,-0.0006108652451075613,-0.0024434609804302454,-0.001832595793530345
1679068269148296400,21.94929638671875,-0.0006108652451075613,-0.0012217304902151227,0
1679068269168013600,21.969013671875,0.0006108652451075613,0.005497787147760391,0.0024434609804302454
1679068269188338400,21.98933837890625,0.0024434609804302454,-0.003054326167330146,-0.0006108652451075613
1679068269208296400,22.00929638671875,0.0006108652451075613,-0.0024434609804302454,0.003054326167330146
1679068269228316400,22.02931640625,0.00366519158706069,-0.0024434609804302454,-0.001832595793530345
1679068269248335600,22.049335693359374,-0.0006108652451075613,-0.001832595793530345,-0.001832595793530345
1679068269268294400,22.06929443359375,-0.0012217304902151227,0.003054326167330146,-0.0024434609804302454
1679068269288313600,22.089313720703124,0,-0.004886921960860491,-0.0012217304902151227
1679068269308333600,22.10933349609375,0.0012217304902151227,0.0006108652451075613,0.001832595793530345
1679068269328291600,22.12929150390625,0.001832595793530345,0.005497787147760391,-0.0006108652451075613
1679068269348310500,22.149310546875,0,-0.004886921960860491,0
1679068269369306600,22.170306640625,0.0012217304902151227,-0.003054326167330146,-0.0012217304902151227
1679068269389326600,22.19032666015625,-0.0006108652451075613,-0.0006108652451075613,-0.001832595793530345
1679068269410322400,22.211322509765626,0.001832595793530345,-0.0006108652451075613,-0.0006108652451075613
1679068269430341600,22.231341552734374,-0.003054326167330146,0.006108652334660292,-0.005497787147760391
1679068269450300400,22.251300537109376,0.00427605677396059,0.00366519158706069,-0.0024434609804302454
1679068269470319600,22.271319580078124,0.003054326167330146,0.001832595793530345,-0.004886921960860491
1679068269490339600,22.291339599609376,-0.003054326167330146,0.00427605677396059,-0.0012217304902151227
1679068269511335400,22.31233544921875,-0.00366519158706069,0.00366519158706069,-0.00366519158706069
1679068269531293400,22.33229345703125,0.001832595793530345,-0.001832595793530345,0.0024434609804302454
1679068269551313400,22.3523134765625,0.00427605677396059,0.00427605677396059,-0.005497787147760391
1679068269573285600,22.37428564453125,0.0006108652451075613,0.001832595793530345,-0.0024434609804302454
1679068269594282500,22.395282470703126,-0.0006108652451075613,-0.00427605677396059,0.004886921960860491
1679068269614301400,22.415301513671874,0.003054326167330146,-0.001832595793530345,0.0012217304902151227
1679068269635297500,22.436297607421874,-0.004886921960860491,-0.001832595793530345,0.0024434609804302454
1679068269655255600,22.456255615234376,-0.0012217304902151227,0.009162978269159794,0.0024434609804302454
1679068269675336400,22.47633642578125,-0.0012217304902151227,0.0012217304902151227,0.001832595793530345
1679068269695294500,22.49629443359375,0.0024434609804302454,-0.0024434609804302454,-0.0012217304902151227
1679068269717328600,22.51832861328125,-0.0006108652451075613,-0.0024434609804302454,0
1679068269738324500,22.539324462890626,-0.0012217304902151227,0.004886921960860491,-0.004886921960860491
1679068269759320600,22.560320556640626,0.0012217304902151227,0.0012217304902151227,0.00427605677396059
1679068269779340500,22.580340576171874,0,0.001832595793530345,-0.0012217304902151227
1679068269799298600,22.600298583984376,0.001832595793530345,0.001832595793530345,-0.0006108652451075613
1679068269819318500,22.620318603515624,0.0006108652451075613,-0.003054326167330146,-0.001832595793530345
1679068269839337500,22.64033740234375,-0.001832595793530345,-0.00366519158706069,0.0006108652451075613
1679068269859295500,22.66029541015625,0.004886921960860491,0.001832595793530345,-0.0006108652451075613
1679068269879315500,22.6803154296875,0.003054326167330146,0.0024434609804302454,0.0012217304902151227
1679068269899334400,22.70033447265625,0.00366519158706069,0.001832595793530345,-0.0024434609804302454
1679068269919293400,22.72029345703125,-0.001832595793530345,0.005497787147760391,-0.005497787147760391
1679068269939312600,22.740312744140624,0,0.0006108652451075613,0.004886921960860491
1679068269959332600,22.76033251953125,0,-0.003054326167330146,0
1679068269981304600,22.7823046875,-0.001832595793530345,-0.00366519158706069,-0.0006108652451075613
1679068270002300400,22.803300537109376,-0.004886921960860491,-0.0024434609804302454,0.00366519158706069
1679068270022259500,22.823259521484374,-0.0006108652451075613,0.0024434609804302454,0.003054326167330146
1679068270042339600,22.843339599609376,0.0006108652451075613,-0.00427605677396059,-0.0006108652451075613
1679068270063274500,22.8642744140625,0.005497787147760391,0.003054326167330146,0
1679068270083233500,22.884233642578124,0.004886921960860491,0.003054326167330146,-0.0006108652451075613
1679068270103252500,22.90425244140625,0.0012217304902151227,0,-0.00366519158706069
1679068270123272400,22.9242724609375,-0.0006108652451075613,-0.0024434609804302454,0.0024434609804302454
1679068270143291400,22.94429150390625,0,0.005497787147760391,-0.0024434609804302454
1679068270164287500,22.96528759765625,0.0024434609804302454,0.00427605677396059,-0.0012217304902151227
1679068270184309500,22.9853095703125,-0.0006108652451075613,0,0.0024434609804302454
1679068270205305600,23.0063056640625,0.0006108652451075613,0.0024434609804302454,-0.0006108652451075613
1679068270225325600,23.02632568359375,0.0012217304902151227,-0.0006108652451075613,-0.0006108652451075613
1679068270246321400,23.0473212890625,0.0012217304902151227,-0.00366519158706069,-0.0006108652451075613
1679068270266340600,23.067340576171876,0,-0.001832595793530345,-0.003054326167330146
1679068270286299400,23.08729931640625,0.00366519158706069,-0.001832595793530345,-0.00366519158706069
1679068270307295500,23.10829541015625,-0.0006108652451075613,-0.0006108652451075613,-0.0012217304902151227
1679068270327314400,23.128314453125,-0.00427605677396059,0.0012217304902151227,0.0006108652451075613
1679068270347334400,23.14833447265625,-0.0024434609804302454,0.00733038317412138,-0.00366519158706069
1679068270367292400,23.16829248046875,0.001832595793530345,0.006108652334660292,-0.0024434609804302454
1679068270387312600,23.188312744140624,-0.0006108652451075613,-0.0024434609804302454,-0.0012217304902151227
1679068270407331600,23.20833154296875,-0.0006108652451075613,-0.0006108652451075613,-0.0012217304902151227
1679068270427290600,23.22829052734375,-0.0006108652451075613,0.003054326167330146,-0.0024434609804302454
1679068270447309600,23.2483095703125,-0.001832595793530345,-0.0006108652451075613,0.0024434609804302454
1679068270467329500,23.26832958984375,0,-0.0006108652451075613,0.0006108652451075613
1679068270487226600,23.2882265625,0,0.001832595793530345,0
1679068270507307500,23.3083076171875,-0.003054326167330146,-0.0024434609804302454,0.0024434609804302454
1679068270527326500,23.328326416015624,0.00427605677396059,0.00366519158706069,-0.005497787147760391
1679068270547285500,23.348285400390626,-0.001832595793530345,-0.00427605677396059,0.001832595793530345
1679068270567243500,23.368243408203124,-0.0006108652451075613,0,0.0012217304902151227
1679068270587262500,23.388262451171876,0.001832595793530345,0.0024434609804302454,-0.0024434609804302454
1679068270607221500,23.408221435546874,-0.006108652334660292,-0.004886921960860491,0.0024434609804302454
1679068270627301600,23.428301513671876,-0.0006108652451075613,0.0012217304902151227,-0.003054326167330146
1679068270648297500,23.44929736328125,0,-0.0006108652451075613,-0.0006108652451075613
1679068270668317400,23.4693173828125,0.0012217304902151227,0.004886921960860491,-0.001832595793530345
1679068270688275500,23.489275390625,0.00366519158706069,0,0.006108652334660292
1679068270708295400,23.50929541015625,-0.001832595793530345,-0.003054326167330146,0.0024434609804302454
1679068270728253400,23.52925341796875,-0.001832595793530345,-0.0006108652451075613,-0.0006108652451075613
1679068270749310500,23.550310546875,-0.001832595793530345,0.003054326167330146,-0.001832595793530345
1679068270770306600,23.571306640625,0.0006108652451075613,-0.0024434609804302454,0.001832595793530345
1679068270791302400,23.592302490234374,0,-0.001832595793530345,0
1679068270811322600,23.612322509765626,0,0,0
1679068270831341600,23.632341552734374,0.0024434609804302454,0.003054326167330146,-0.0024434609804302454
1679068270852337400,23.65333740234375,0.001832595793530345,-0.0006108652451075613,0.0012217304902151227
1679068270872235500,23.673235595703126,0.003054326167330146,0.003054326167330146,-0.0006108652451075613
1679068270892315400,23.6933154296875,0.0012217304902151227,-0.0024434609804302454,-0.006719517521560192
1679068270912335600,23.713335693359376,-0.0006108652451075613,-0.0012217304902151227,0.003054326167330146
1679068270932293600,23.733293701171874,0.0012217304902151227,0,0.006108652334660292
1679068270952191500,23.75319140625,0.0024434609804302454,0.0024434609804302454,0.00366519158706069
1679068270972332500,23.77333251953125,0.0024434609804302454,-0.001832595793530345,0
1679068270992108500,23.793108642578126,-0.00366519158706069,-0.0006108652451075613,0.00366519158706069
1679068271012310500,23.813310546875,0.003054326167330146,0.003054326167330146,-0.001832595793530345
1679068271032330500,23.83333056640625,0.0006108652451075613,0.0012217304902151227,-0.0024434609804302454
1679068271053326600,23.85432666015625,0.0006108652451075613,-0.001832595793530345,0.001832595793530345
1679068271074322400,23.875322509765624,0.003054326167330146,-0.0012217304902151227,-0.006108652334660292
1679068271094341600,23.895341552734376,0.00427605677396059,0.004886921960860491,-0.0024434609804302454
1679068271114300400,23.915300537109374,0.0006108652451075613,-0.0012217304902151227,0.0012217304902151227
1679068271135296500,23.936296630859374,0.003054326167330146,0.005497787147760391,-0.0012217304902151227
1679068271155315500,23.9563154296875,-0.0012217304902151227,0.0024434609804302454,0.0006108652451075613
1679068271175276500,23.976276611328124,0.0024434609804302454,0.003054326167330146,-0.0024434609804302454
1679068271195296500,23.996296630859376,-0.00366519158706069,-0.00427605677396059,-0.001832595793530345
1679068271215315500,24.0163154296875,-0.0006108652451075613,0,0.00427605677396059
1679068271236311600,24.0373115234375,0.00366519158706069,-0.001832595793530345,-0.00733038317412138
1679068271257307400,24.058307373046876,0.0006108652451075613,0.001832595793530345,-0.003054326167330146
1679068271277266400,24.078266357421874,0,0.003054326167330146,0.0006108652451075613
1679068271297285600,24.09828564453125,0.00427605677396059,0.005497787147760391,0.001832595793530345
1679068271317305600,24.1183056640625,0.0012217304902151227,0.001832595793530345,-0.00366519158706069
1679068271337324500,24.138324462890626,-0.0006108652451075613,-0.0024434609804302454,0.003054326167330146
1679068271357283600,24.15828369140625,0.00366519158706069,0.0006108652451075613,-0.0006108652451075613
1679068271377302500,24.178302490234376,-0.0024434609804302454,0.00366519158706069,0.0024434609804302454
1679068271397322500,24.198322509765624,0.0006108652451075613,0.003054326167330146,-0.0006108652451075613
1679068271417280500,24.218280517578126,-0.0024434609804302454,-0.00366519158706069,0
1679068271438337500,24.239337646484376,-0.00366519158706069,0.0012217304902151227,-0.003054326167330146
1679068271458296600,24.259296630859374,0,-0.0006108652451075613,-0.001832595793530345
1679068271478315500,24.2793154296875,-0.001832595793530345,-0.001832595793530345,-0.00366519158706069
1679068271498334500,24.29933447265625,0.0006108652451075613,0.0012217304902151227,0
1679068271518293500,24.31929345703125,0.003054326167330146,0.0012217304902151227,-0.0012217304902151227
1679068271538312400,24.3393125,0.00366519158706069,0,-0.005497787147760391
1679068271558332400,24.35933251953125,0.001832595793530345,0.0006108652451075613,-0.0012217304902151227
1679068271578290400,24.37929052734375,0.003054326167330146,0.0012217304902151227,-0.00366519158706069
1679068271598310400,24.399310302734374,0,0.0024434609804302454,0
1679068271618329600,24.41932958984375,-0.003054326167330146,-0.003054326167330146,0.00427605677396059
1679068271639325400,24.440325439453126,-0.0012217304902151227,0,0.0012217304902151227
1679068271659284500,24.460284423828124,-0.0006108652451075613,0.00427605677396059,0.004886921960860491
1679068271679303400,24.480303466796876,-0.0006108652451075613,-0.0006108652451075613,-0.00427605677396059
1679068271699323400,24.500323486328124,0,0,-0.0024434609804302454
1679068271719281400,24.520281494140626,-0.0012217304902151227,-0.001832595793530345,0.003054326167330146
1679068271739301600,24.540301513671874,0.0012217304902151227,0,0.0012217304902151227
1679068271759320600,24.560320556640626,0.003054326167330146,0,-0.0006108652451075613
1679068271779340500,24.580340576171874,0.0006108652451075613,-0.0012217304902151227,-0.001832595793530345
1679068271799298600,24.600298583984376,-0.0012217304902151227,-0.0006108652451075613,0
1679068271819318500,24.620318603515624,-0.0006108652451075613,0.0006108652451075613,0
1679068271839337500,24.64033740234375,-0.001832595793530345,0,-0.001832595793530345
1679068271859295500,24.66029541015625,0.005497787147760391,-0.0012217304902151227,-0.003054326167330146
1679068271879315500,24.6803154296875,-0.0006108652451075613,0.001832595793530345,0.001832595793530345
1679068271899334400,24.70033447265625,-0.0012217304902151227,-0.00427605677396059,0
1679068271919293400,24.72029345703125,0.00427605677396059,0.001832595793530345,-0.0006108652451075613
1679068271940289500,24.74128955078125,0.0006108652451075613,0.00427605677396059,-0.001832595793530345
1679068271960308500,24.76130859375,-0.0006108652451075613,0.0012217304902151227,-0.00366519158706069
1679068271980328400,24.781328369140624,0.0012217304902151227,0.006108652334660292,0.0012217304902151227
1679068272000286500,24.801286376953126,-0.0012217304902151227,-0.00366519158706069,0.006719517521560192
1679068272022320600,24.823320556640624,0.0024434609804302454,0.001832595793530345,-0.0012217304902151227
1679068272042339600,24.843339599609376,0.003054326167330146,0.003054326167330146,0.004886921960860491
1679068272062298600,24.863298583984374,0.0012217304902151227,0.001832595793530345,-0.0006108652451075613
1679068272082134500,24.883134521484376,0.00366519158706069,0.00427605677396059,0
1679068272102337500,24.903337646484374,0,-0.001832595793530345,0.001832595793530345
1679068272123333600,24.924333740234374,-0.00366519158706069,-0.001832595793530345,-0.00427605677396059
1679068272144329500,24.94532958984375,0.005497787147760391,-0.005497787147760391,0.00427605677396059
1679068272165325600,24.96632568359375,0.0012217304902151227,0.00366519158706069,-0.001832595793530345
1679068272185286400,24.986286376953124,-0.0006108652451075613,0.0012217304902151227,0
1679068272205305600,25.0063056640625,0.0012217304902151227,0.0012217304902151227,-0.0012217304902151227
1679068272226301400,25.027301513671876,0.003054326167330146,0.00366519158706069,0.0012217304902151227
1679068272246260500,25.047260498046874,0.0012217304902151227,-0.00366519158706069,0.0024434609804302454
1679068272266340600,25.067340576171876,0.003054326167330146,-0.0006108652451075613,0
1679068272286299400,25.08729931640625,0.0006108652451075613,-0.0012217304902151227,-0.001832595793530345
1679068272306318600,25.107318603515626,0.0024434609804302454,0.0012217304902151227,-0.0024434609804302454
1679068272328291600,25.12929150390625,0.0024434609804302454,0.003054326167330146,-0.0012217304902151227
1679068272348310500,25.149310546875,0.005497787147760391,0.007941247895359993,-0.00427605677396059
