time,seconds_elapsed,z,y,x
1679068247630753300,0.431753173828125,0.06780604273080826,0.0507018156349659,-0.06536258012056351
1679068247650772200,0.451772216796875,0.0659734457731247,0.04948008432984352,-0.06475171446800232
1679068247670731300,0.471731201171875,0.0659734457731247,0.048258353024721146,-0.05864306539297104
1679068247690750200,0.491750244140625,0.06536258012056351,0.048258353024721146,-0.060475658625364304
1679068247711746000,0.51274609375,0.0659734457731247,0.04764748737215996,-0.06414084881544113
1679068247731766300,0.532766357421875,0.06719517707824707,0.04948008432984352,-0.06230825558304787
1679068247751724300,0.552724365234375,0.06719517707824707,0.05192354694008827,-0.06352998316287994
1679068247771743200,0.5727431640625,0.0659734457731247,0.04642575979232788,-0.05925392732024193
1679068247791763200,0.59276318359375,0.06352998316287994,0.04642575979232788,-0.060475658625364304
1679068247811721200,0.61272119140625,0.06658431142568588,0.05009094998240471,-0.06536258012056351
1679068247831741200,0.6327412109375,0.06719517707824707,0.04948008432984352,-0.06414084881544113
1679068247851760000,0.652760009765625,0.06902777403593063,0.05009094998240471,-0.06230825558304787
1679068247872756200,0.673756103515625,0.0659734457731247,0.04581489413976669,-0.06475171446800232
1679068247893752000,0.694751953125,0.06963863968849182,0.05497787147760391,-0.06536258012056351
1679068247913772300,0.714772216796875,0.06902777403593063,0.05314527451992035,-0.06414084881544113
1679068247933730000,0.73472998046875,0.06719517707824707,0.045204028487205505,-0.06352998316287994
1679068247954726100,0.75572607421875,0.06780604273080826,0.0507018156349659,-0.06291911751031876
1679068247975722200,0.77672216796875,0.06230825558304787,0.048258353024721146,-0.0659734457731247
1679068247995742200,0.7967421875,0.06963863968849182,0.048258353024721146,-0.06169738993048668
1679068248015761200,0.81676123046875,0.06841690838336945,0.04764748737215996,-0.06169738993048668
1679068248036757200,0.83775732421875,0.06963863968849182,0.05009094998240471,-0.06475171446800232
1679068248057753000,0.858753173828125,0.06902777403593063,0.05375614017248154,-0.05497787147760391
1679068248077773000,0.87877294921875,0.06536258012056351,0.05192354694008827,-0.06230825558304787
1679068248097731000,0.89873095703125,0.06658431142568588,0.05253441259264946,-0.06414084881544113
1679068248118727200,0.91972705078125,0.06902777403593063,0.0507018156349659,-0.06108652427792549
1679068248139723300,0.94072314453125,0.06475171446800232,0.04886921867728233,-0.060475658625364304
1679068248159743200,0.9607431640625,0.06841690838336945,0.05009094998240471,-0.060475658625364304
1679068248179765200,0.98076513671875,0.06352998316287994,0.04581489413976669,-0.06352998316287994
1679068248199662000,1.000662109375,0.06841690838336945,0.042760565876960754,-0.05742133408784866
1679068248219743200,1.0207431640625,0.07269296050071716,0.05375614017248154,-0.06414084881544113
1679068248241777200,1.042777099609375,0.06841690838336945,0.05253441259264946,-0.06414084881544113
1679068248261735200,1.062735107421875,0.06841690838336945,0.051312681287527084,-0.06291911751031876
1679068248281754000,1.082754150390625,0.06719517707824707,0.0507018156349659,-0.06536258012056351
1679068248301774000,1.102774169921875,0.06475171446800232,0.04886921867728233,-0.05864306539297104
1679068248321732000,1.122732177734375,0.0659734457731247,0.04703662544488907,-0.05925392732024193
1679068248341752000,1.142751953125,0.0659734457731247,0.05192354694008827,-0.06108652427792549
1679068248362748200,1.163748046875,0.0659734457731247,0.05253441259264946,-0.06108652427792549
1679068248382767000,1.18376708984375,0.06536258012056351,0.04764748737215996,-0.060475658625364304
1679068248403763200,1.20476318359375,0.06658431142568588,0.04642575979232788,-0.06291911751031876
1679068248423722200,1.22472216796875,0.06841690838336945,0.05009094998240471,-0.06230825558304787
1679068248443741200,1.2447412109375,0.06841690838336945,0.05314527451992035,-0.06230825558304787
1679068248463761200,1.26476123046875,0.07024950534105301,0.05253441259264946,-0.0659734457731247
1679068248484757200,1.28575732421875,0.07024950534105301,0.051312681287527084,-0.06475171446800232
1679068248505753000,1.306753173828125,0.06841690838336945,0.04886921867728233,-0.060475658625364304
1679068248527726000,1.32872607421875,0.06352998316287994,0.051312681287527084,-0.059864792972803116
1679068248547745300,1.348745361328125,0.06963863968849182,0.04398229718208313,-0.06169738993048668
1679068248568741000,1.3697412109375,0.06719517707824707,0.05009094998240471,-0.06414084881544113
1679068248588761000,1.389760986328125,0.06841690838336945,0.04886921867728233,-0.06108652427792549
1679068248610733000,1.411733154296875,0.06475171446800232,0.04764748737215996,-0.056810468435287476
1679068248630753300,1.431753173828125,0.06536258012056351,0.04153883829712868,-0.05864306539297104
1679068248650772200,1.451772216796875,0.06780604273080826,0.04948008432984352,-0.06108652427792549
1679068248670731300,1.471731201171875,0.07024950534105301,0.04398229718208313,-0.060475658625364304
1679068248690750200,1.491750244140625,0.06719517707824707,0.042760565876960754,-0.056810468435287476
1679068248710769200,1.51176904296875,0.06780604273080826,0.0507018156349659,-0.059864792972803116
1679068248730728200,1.531728271484375,0.06841690838336945,0.04948008432984352,-0.05864306539297104
1679068248750747100,1.5517470703125,0.06841690838336945,0.05009094998240471,-0.06475171446800232
1679068248770767000,1.57176708984375,0.06963863968849182,0.04886921867728233,-0.060475658625364304
1679068248790542000,1.5915419921875,0.07024950534105301,0.04886921867728233,-0.06108652427792549
1679068248810745000,1.6117451171875,0.06536258012056351,0.05253441259264946,-0.06169738993048668
1679068248831741200,1.6327412109375,0.06658431142568588,0.0507018156349659,-0.06475171446800232
1679068248851760000,1.652760009765625,0.0708603709936142,0.0555887371301651,-0.06169738993048668
1679068248871719200,1.67271923828125,0.06719517707824707,0.051312681287527084,-0.06230825558304787
1679068248891738000,1.692738037109375,0.07024950534105301,0.04886921867728233,-0.05742133408784866
1679068248911697200,1.712697265625,0.07024950534105301,0.04948008432984352,-0.0659734457731247
1679068248931777300,1.73277734375,0.06780604273080826,0.04764748737215996,-0.059864792972803116
1679068248951736000,1.752736083984375,0.06658431142568588,0.04703662544488907,-0.06291911751031876
1679068248971755300,1.77275537109375,0.06719517707824707,0.04886921867728233,-0.060475658625364304
1679068248991775200,1.792775146484375,0.06780604273080826,0.05619960278272629,-0.059864792972803116
1679068249012588300,1.81358837890625,0.06780604273080826,0.04764748737215996,-0.060475658625364304
1679068249032729000,1.83372900390625,0.0659734457731247,0.05253441259264946,-0.06352998316287994
1679068249052749000,1.8537490234375,0.06963863968849182,0.0507018156349659,-0.06475171446800232
1679068249072768300,1.873768310546875,0.06475171446800232,0.04948008432984352,-0.0659734457731247
1679068249092727300,1.893727294921875,0.06902777403593063,0.051312681287527084,-0.056810468435287476
1679068249112746200,1.913746337890625,0.06414084881544113,0.04459316283464432,-0.059864792972803116
1679068249133742000,1.9347421875,0.06902777403593063,0.0507018156349659,-0.059864792972803116
1679068249153762000,1.954761962890625,0.06719517707824707,0.05314527451992035,-0.06108652427792549
1679068249173661200,1.9746611328125,0.06658431142568588,0.04764748737215996,-0.060475658625364304
1679068249193742000,1.9947421875,0.0708603709936142,0.05009094998240471,-0.059864792972803116
1679068249213761300,2.01476123046875,0.07024950534105301,0.05009094998240471,-0.059864792972803116
1679068249233720000,2.034719970703125,0.06780604273080826,0.04886921867728233,-0.05925392732024193
1679068249254777000,2.055777099609375,0.07024950534105301,0.05253441259264946,-0.06841690838336945
1679068249274735000,2.075735107421875,0.06902777403593063,0.05253441259264946,-0.06475171446800232
1679068249294755000,2.095755126953125,0.06902777403593063,0.05253441259264946,-0.06108652427792549
1679068249315568000,2.116568115234375,0.06475171446800232,0.048258353024721146,-0.06230825558304787
1679068249336747300,2.137747314453125,0.06536258012056351,0.05192354694008827,-0.05803219974040985
1679068249356766200,2.15776611328125,0.06719517707824707,0.0507018156349659,-0.06108652427792549
1679068249376725200,2.177725341796875,0.06719517707824707,0.054367005825042725,-0.06169738993048668
1679068249396744200,2.197744140625,0.06475171446800232,0.0507018156349659,-0.06230825558304787
1679068249416764200,2.21776416015625,0.06291911751031876,0.04581489413976669,-0.05925392732024193
1679068249436722200,2.23772216796875,0.06902777403593063,0.05192354694008827,-0.06108652427792549
1679068249456742100,2.2577421875,0.06841690838336945,0.04642575979232788,-0.05864306539297104
1679068249476761000,2.277760986328125,0.06719517707824707,0.05009094998240471,-0.06352998316287994
1679068249496720100,2.29772021484375,0.06536258012056351,0.05314527451992035,-0.0659734457731247
1679068249516739000,2.317739013671875,0.06475171446800232,0.04948008432984352,-0.05864306539297104
1679068249536698000,2.337697998046875,0.06780604273080826,0.04948008432984352,-0.06414084881544113
1679068249556778200,2.3577783203125,0.06658431142568588,0.04948008432984352,-0.05742133408784866
1679068249576737300,2.3777373046875,0.06291911751031876,0.05192354694008827,-0.06291911751031876
1679068249597733000,2.398733154296875,0.06658431142568588,0.045204028487205505,-0.06169738993048668
1679068249617752000,2.418751953125,0.06658431142568588,0.05192354694008827,-0.06414084881544113
1679068249637772300,2.438772216796875,0.06841690838336945,0.05497787147760391,-0.06352998316287994
1679068249657730000,2.45872998046875,0.06475171446800232,0.048258353024721146,-0.06108652427792549
1679068249677750300,2.478750244140625,0.06658431142568588,0.045204028487205505,-0.06291911751031876
1679068249698746000,2.49974609375,0.06536258012056351,0.05192354694008827,-0.06414084881544113
1679068249718704000,2.5197041015625,0.06841690838336945,0.054367005825042725,-0.06475171446800232
1679068249739761200,2.54076123046875,0.06719517707824707,0.05192354694008827,-0.06291911751031876
1679068249759720200,2.56072021484375,0.06841690838336945,0.05009094998240471,-0.06352998316287994
1679068249779739100,2.5807392578125,0.06536258012056351,0.0507018156349659,-0.06536258012056351
1679068249799759000,2.600759033203125,0.06475171446800232,0.04764748737215996,-0.06108652427792549
1679068249819778000,2.620778076171875,0.0659734457731247,0.05009094998240471,-0.0555887371301651
1679068249839736000,2.640736083984375,0.06536258012056351,0.04764748737215996,-0.06291911751031876
1679068249859756300,2.66075634765625,0.06841690838336945,0.04948008432984352,-0.06230825558304787
1679068249879775200,2.680775146484375,0.06414084881544113,0.04886921867728233,-0.06475171446800232
1679068249899734300,2.700734375,0.06902777403593063,0.05009094998240471,-0.059864792972803116
1679068249919753200,2.720753173828125,0.06475171446800232,0.04642575979232788,-0.06108652427792549
1679068249939773200,2.740773193359375,0.0659734457731247,0.0507018156349659,-0.06414084881544113
1679068249959731200,2.760731201171875,0.06352998316287994,0.04886921867728233,-0.06108652427792549
1679068249980727300,2.781727294921875,0.06841690838336945,0.048258353024721146,-0.06230825558304787
1679068250000747300,2.801747314453125,0.07024950534105301,0.051312681287527084,-0.06352998316287994
1679068250020766200,2.82176611328125,0.06719517707824707,0.05314527451992035,-0.06414084881544113
1679068250041762000,2.842761962890625,0.06291911751031876,0.04581489413976669,-0.05864306539297104
1679068250061721000,2.86272119140625,0.06475171446800232,0.04886921867728233,-0.05925392732024193
1679068250081740300,2.882740234375,0.06780604273080826,0.05314527451992035,-0.06352998316287994
1679068250101760300,2.90276025390625,0.07147123664617538,0.054367005825042725,-0.060475658625364304
1679068250121718300,2.92271826171875,0.06658431142568588,0.05009094998240471,-0.06291911751031876
1679068250141738200,2.94273828125,0.06230825558304787,0.04581489413976669,-0.059864792972803116
1679068250161757200,2.962757080078125,0.06658431142568588,0.04703662544488907,-0.06536258012056351
1679068250181718300,2.98271826171875,0.06841690838336945,0.048258353024721146,-0.06169738993048668
1679068250201738200,3.00273828125,0.06780604273080826,0.051312681287527084,-0.06475171446800232
1679068250221757200,3.022757080078125,0.06475171446800232,0.05009094998240471,-0.06414084881544113
1679068250241777200,3.042777099609375,0.06291911751031876,0.05009094998240471,-0.056810468435287476
1679068250262773200,3.063773193359375,0.06902777403593063,0.0507018156349659,-0.059864792972803116
1679068250282731300,3.083731201171875,0.06475171446800232,0.05314527451992035,-0.06536258012056351
1679068250303727000,3.10472705078125,0.0659734457731247,0.05253441259264946,-0.05803219974040985
1679068250323747000,3.1247470703125,0.06780604273080826,0.048258353024721146,-0.06475171446800232
1679068250343766300,3.144766357421875,0.06536258012056351,0.054367005825042725,-0.06291911751031876
1679068250363724300,3.164724365234375,0.06719517707824707,0.051312681287527084,-0.06414084881544113
1679068250383744300,3.184744140625,0.06841690838336945,0.05314527451992035,-0.06536258012056351
1679068250403763200,3.20476318359375,0.0659734457731247,0.051312681287527084,-0.05742133408784866
1679068250423722200,3.22472216796875,0.07024950534105301,0.051312681287527084,-0.059864792972803116
1679068250443741200,3.2447412109375,0.06230825558304787,0.04948008432984352,-0.060475658625364304
1679068250463761200,3.26476123046875,0.06414084881544113,0.05314527451992035,-0.06352998316287994
1679068250483658200,3.284658203125,0.06719517707824707,0.05253441259264946,-0.06291911751031876
1679068250504776200,3.305776123046875,0.07147123664617538,0.05192354694008827,-0.06291911751031876
1679068250524735200,3.3257353515625,0.0708603709936142,0.0555887371301651,-0.06169738993048668
1679068250544754200,3.345754150390625,0.06841690838336945,0.04886921867728233,-0.06352998316287994
1679068250564774100,3.365774169921875,0.06841690838336945,0.05375614017248154,-0.06475171446800232
1679068250584732200,3.385732177734375,0.06414084881544113,0.04703662544488907,-0.06230825558304787
1679068250604752100,3.405752197265625,0.06475171446800232,0.04642575979232788,-0.06108652427792549
1679068250625748200,3.426748291015625,0.06719517707824707,0.0555887371301651,-0.06658431142568588
1679068250645767200,3.44676708984375,0.06658431142568588,0.04764748737215996,-0.05864306539297104
1679068250665543200,3.466543212890625,0.06963863968849182,0.04948008432984352,-0.05925392732024193
1679068250685745200,3.4867451171875,0.06841690838336945,0.04886921867728233,-0.06108652427792549
1679068250705765000,3.50676513671875,0.07024950534105301,0.04764748737215996,-0.06169738993048668
1679068250725662200,3.526662109375,0.06841690838336945,0.048258353024721146,-0.06352998316287994
1679068250746719200,3.54771923828125,0.06719517707824707,0.05375614017248154,-0.06780604273080826
1679068250766739200,3.5677392578125,0.06719517707824707,0.05192354694008827,-0.06414084881544113
1679068250786697200,3.587697265625,0.0659734457731247,0.05253441259264946,-0.059864792972803116
1679068250806778000,3.607778076171875,0.06658431142568588,0.045204028487205505,-0.05742133408784866
1679068250826736000,3.627736083984375,0.07024950534105301,0.054367005825042725,-0.06352998316287994
1679068250846755000,3.647755126953125,0.06658431142568588,0.05009094998240471,-0.06108652427792549
1679068250867751200,3.668751220703125,0.06963863968849182,0.05009094998240471,-0.06841690838336945
1679068250888748300,3.689748291015625,0.06963863968849182,0.04948008432984352,-0.06352998316287994
1679068250908767200,3.709767333984375,0.06536258012056351,0.04703662544488907,-0.060475658625364304
1679068250928725200,3.729725341796875,0.06291911751031876,0.05192354694008827,-0.06108652427792549
1679068250948745200,3.7497451171875,0.06902777403593063,0.051312681287527084,-0.06108652427792549
1679068250968764200,3.76976416015625,0.0659734457731247,0.051312681287527084,-0.06108652427792549
1679068250988723200,3.78972314453125,0.0659734457731247,0.04886921867728233,-0.05864306539297104
1679068251008742100,3.8097421875,0.06230825558304787,0.05192354694008827,-0.06108652427792549
1679068251028762000,3.82976220703125,0.06963863968849182,0.056810468435287476,-0.06291911751031876
1679068251048720100,3.84972021484375,0.06841690838336945,0.04642575979232788,-0.06108652427792549
1679068251068740000,3.869739990234375,0.06536258012056351,0.05009094998240471,-0.060475658625364304
1679068251088759300,3.88975927734375,0.06352998316287994,0.04886921867728233,-0.06169738993048668
1679068251108718000,3.909718017578125,0.06475171446800232,0.04948008432984352,-0.06536258012056351
1679068251128737300,3.9297373046875,0.06475171446800232,0.05009094998240471,-0.060475658625364304
1679068251148757200,3.94975732421875,0.06963863968849182,0.045204028487205505,-0.05742133408784866
1679068251168718000,3.969718017578125,0.06414084881544113,0.0507018156349659,-0.05864306539297104
1679068251188737300,3.9897373046875,0.07391469180583954,0.048258353024721146,-0.06414084881544113
1679068251208757200,4.00975732421875,0.07024950534105301,0.05497787147760391,-0.06230825558304787
1679068251228776200,4.029776123046875,0.06902777403593063,0.04886921867728233,-0.060475658625364304
1679068251248735200,4.0497353515625,0.06963863968849182,0.0555887371301651,-0.06475171446800232
1679068251268754200,4.069754150390625,0.0659734457731247,0.04764748737215996,-0.06108652427792549
1679068251290727200,4.09172705078125,0.06841690838336945,0.04642575979232788,-0.06108652427792549
1679068251311723300,4.11272314453125,0.06719517707824707,0.051312681287527084,-0.06169738993048668
1679068251331742200,4.1327421875,0.06963863968849182,0.04642575979232788,-0.06414084881544113
1679068251352738000,4.153738037109375,0.06658431142568588,0.0507018156349659,-0.06658431142568588
1679068251372697000,4.173697021484375,0.0659734457731247,0.0507018156349659,-0.05864306539297104
1679068251392716300,4.19371630859375,0.06902777403593063,0.04948008432984352,-0.05925392732024193
1679068251414750200,4.215750244140625,0.06902777403593063,0.04948008432984352,-0.05864306539297104
1679068251434708200,4.235708251953125,0.06841690838336945,0.05009094998240471,-0.05864306539297104
1679068251454728200,4.255728271484375,0.06963863968849182,0.048258353024721146,-0.06169738993048668
1679068251474747100,4.2757470703125,0.0659734457731247,0.04642575979232788,-0.06169738993048668
1679068251495743200,4.2967431640625,0.06780604273080826,0.04642575979232788,-0.060475658625364304
1679068251516739000,4.317739013671875,0.06230825558304787,0.051312681287527084,-0.0659734457731247
1679068251537735200,4.338735107421875,0.06719517707824707,0.04703662544488907,-0.060475658625364304
1679068251557755100,4.358755126953125,0.06780604273080826,0.0507018156349659,-0.06475171446800232
1679068251577774000,4.378774169921875,0.06719517707824707,0.04886921867728233,-0.05925392732024193
1679068251598770200,4.399770263671875,0.06169738993048668,0.04886921867728233,-0.059864792972803116
1679068251619766300,4.420766357421875,0.06841690838336945,0.04886921867728233,-0.06108652427792549
1679068251639725000,4.44072509765625,0.06475171446800232,0.04642575979232788,-0.05803219974040985
1679068251659744300,4.460744140625,0.06658431142568588,0.04642575979232788,-0.06169738993048668
1679068251679764200,4.48076416015625,0.0659734457731247,0.051312681287527084,-0.05864306539297104
1679068251699722200,4.50072216796875,0.06658431142568588,0.05314527451992035,-0.06352998316287994
1679068251719742200,4.5207421875,0.06658431142568588,0.05253441259264946,-0.06352998316287994
1679068251739761200,4.54076123046875,0.06841690838336945,0.051312681287527084,-0.054367005825042725
1679068251759720200,4.56072021484375,0.06414084881544113,0.04764748737215996,-0.060475658625364304
1679068251779556000,4.58055615234375,0.06902777403593063,0.0507018156349659,-0.056810468435287476
1679068251799759000,4.600759033203125,0.06719517707824707,0.04764748737215996,-0.05864306539297104
1679068251819778000,4.620778076171875,0.06536258012056351,0.048258353024721146,-0.06169738993048668
1679068251839736000,4.640736083984375,0.06658431142568588,0.04642575979232788,-0.06230825558304787
1679068251859756300,4.66075634765625,0.06963863968849182,0.04886921867728233,-0.05742133408784866
1679068251879775200,4.680775146484375,0.06841690838336945,0.04764748737215996,-0.05619960278272629
1679068251899734300,4.700734375,0.06475171446800232,0.04764748737215996,-0.06169738993048668
1679068251919753200,4.720753173828125,0.06780604273080826,0.04886921867728233,-0.06108652427792549
1679068251939773200,4.740773193359375,0.06902777403593063,0.048258353024721146,-0.05925392732024193
1679068251959731200,4.760731201171875,0.06719517707824707,0.0507018156349659,-0.05864306539297104
1679068251979751200,4.780751220703125,0.06963863968849182,0.04642575979232788,-0.06291911751031876
1679068251999770000,4.80077001953125,0.06902777403593063,0.04948008432984352,-0.05864306539297104
1679068252019668200,4.820668212890625,0.06841690838336945,0.05619960278272629,-0.05864306539297104
1679068252039748000,4.840748046875,0.0659734457731247,0.048258353024721146,-0.0555887371301651
1679068252059707100,4.86070703125,0.0659734457731247,0.04703662544488907,-0.06352998316287994
1679068252080764200,4.88176416015625,0.06902777403593063,0.05742133408784866,-0.06108652427792549
1679068252100722200,4.90172216796875,0.06780604273080826,0.04642575979232788,-0.06414084881544113
1679068252120742100,4.9217421875,0.06536258012056351,0.04886921867728233,-0.06352998316287994
1679068252140761000,4.941760986328125,0.06780604273080826,0.045204028487205505,-0.05803219974040985
1679068252160719000,4.961718994140625,0.06719517707824707,0.045204028487205505,-0.05619960278272629
1679068252180742100,4.9817421875,0.0659734457731247,0.05009094998240471,-0.05803219974040985
1679068252200761000,5.001760986328125,0.06841690838336945,0.048258353024721146,-0.059864792972803116
1679068252221757200,5.022757080078125,0.06536258012056351,0.04948008432984352,-0.06169738993048668
1679068252241777200,5.042777099609375,0.06841690838336945,0.04764748737215996,-0.06169738993048668
1679068252261674200,5.06267431640625,0.06902777403593063,0.04886921867728233,-0.0555887371301651
1679068252281754000,5.082754150390625,0.0659734457731247,0.04642575979232788,-0.059864792972803116
1679068252301774000,5.102774169921875,0.06658431142568588,0.045204028487205505,-0.060475658625364304
1679068252321732000,5.122732177734375,0.06780604273080826,0.04581489413976669,-0.05803219974040985
1679068252341752000,5.142751953125,0.06719517707824707,0.05192354694008827,-0.05925392732024193
1679068252361771300,5.162771240234375,0.06841690838336945,0.0507018156349659,-0.06536258012056351
1679068252381730000,5.18272998046875,0.06719517707824707,0.05314527451992035,-0.06108652427792549
1679068252401749200,5.202749267578125,0.06902777403593063,0.04948008432984352,-0.05925392732024193
1679068252421769200,5.222769287109375,0.0659734457731247,0.0555887371301651,-0.06230825558304787
1679068252441727200,5.242727294921875,0.06719517707824707,0.048258353024721146,-0.05925392732024193
1679068252461747200,5.262747314453125,0.06658431142568588,0.054367005825042725,-0.06536258012056351
1679068252481766100,5.28276611328125,0.0659734457731247,0.05742133408784866,-0.06352998316287994
1679068252501725200,5.30272509765625,0.06780604273080826,0.05192354694008827,-0.06352998316287994
1679068252521744100,5.322744140625,0.06902777403593063,0.051312681287527084,-0.054367005825042725
1679068252541764000,5.34276416015625,0.06841690838336945,0.05497787147760391,-0.06108652427792549
1679068252561722000,5.36272216796875,0.06963863968849182,0.05253441259264946,-0.06352998316287994
1679068252581741000,5.382740966796875,0.06475171446800232,0.048258353024721146,-0.06108652427792549
1679068252601761300,5.40276123046875,0.06780604273080826,0.04886921867728233,-0.06414084881544113
1679068252622757000,5.423757080078125,0.06475171446800232,0.04764748737215996,-0.06352998316287994
1679068252642776000,5.443776123046875,0.06536258012056351,0.048258353024721146,-0.059864792972803116
1679068252662735000,5.463735107421875,0.06780604273080826,0.04764748737215996,-0.059864792972803116
1679068252682754000,5.483754150390625,0.06658431142568588,0.04703662544488907,-0.056810468435287476
1679068252702774300,5.503774169921875,0.06536258012056351,0.04581489413976669,-0.06169738993048668
1679068252722671000,5.523671142578125,0.06719517707824707,0.0507018156349659,-0.05803219974040985
1679068252742752300,5.543752197265625,0.06963863968849182,0.04642575979232788,-0.05925392732024193
1679068252762771200,5.563771240234375,0.06475171446800232,0.04886921867728233,-0.06230825558304787
1679068252782730200,5.583730224609375,0.06780604273080826,0.04948008432984352,-0.05619960278272629
1679068252802749200,5.603749267578125,0.07024950534105301,0.051312681287527084,-0.059864792972803116
1679068252822769200,5.62376904296875,0.06841690838336945,0.04886921867728233,-0.0555887371301651
1679068252842727200,5.64372705078125,0.06902777403593063,0.05375614017248154,-0.060475658625364304
1679068252862747100,5.6637470703125,0.06719517707824707,0.04886921867728233,-0.06352998316287994
1679068252882766000,5.68376611328125,0.06414084881544113,0.04948008432984352,-0.06230825558304787
1679068252902725000,5.70372509765625,0.06963863968849182,0.051312681287527084,-0.05925392732024193
1679068252923721200,5.72472119140625,0.07391469180583954,0.0555887371301651,-0.06291911751031876
1679068252944778200,5.7457783203125,0.0659734457731247,0.05497787147760391,-0.06169738993048668
1679068252964736300,5.765736328125,0.06963863968849182,0.04886921867728233,-0.0659734457731247
1679068252984756200,5.785756103515625,0.0708603709936142,0.0507018156349659,-0.06475171446800232
1679068253004775200,5.805775146484375,0.06230825558304787,0.04886921867728233,-0.060475658625364304
1679068253024734200,5.825734130859375,0.06475171446800232,0.0507018156349659,-0.06352998316287994
1679068253044753200,5.845753173828125,0.0659734457731247,0.04886921867728233,-0.06169738993048668
1679068253064772000,5.865772216796875,0.06841690838336945,0.04886921867728233,-0.06414084881544113
1679068253084731100,5.885731201171875,0.0659734457731247,0.04764748737215996,-0.060475658625364304
1679068253104750000,5.90575,0.0659734457731247,0.04764748737215996,-0.06169738993048668
1679068253125746200,5.92674609375,0.06902777403593063,0.054367005825042725,-0.060475658625364304
1679068253145766100,5.94676611328125,0.06414084881544113,0.0507018156349659,-0.06108652427792549
1679068253165724200,5.96672412109375,0.06719517707824707,0.04642575979232788,-0.06108652427792549
1679068253185746200,5.98674609375,0.06780604273080826,0.05497787147760391,-0.06414084881544113
1679068253206742300,6.0077421875,0.06719517707824707,0.04886921867728233,-0.06230825558304787
1679068253226762200,6.02776220703125,0.06719517707824707,0.045204028487205505,-0.06230825558304787
1679068253246720300,6.04772021484375,0.07269296050071716,0.048258353024721146,-0.05619960278272629
1679068253266557200,6.06755712890625,0.07452555745840073,0.0507018156349659,-0.06780604273080826
1679068253286759200,6.08775927734375,0.0659734457731247,0.04459316283464432,-0.06291911751031876
1679068253306535200,6.10753515625,0.06536258012056351,0.04581489413976669,-0.06475171446800232
1679068253326737200,6.127737060546875,0.06841690838336945,0.05619960278272629,-0.06414084881544113
1679068253346757000,6.147757080078125,0.06719517707824707,0.0507018156349659,-0.06230825558304787
1679068253367753200,6.168753173828125,0.06352998316287994,0.0507018156349659,-0.06230825558304787
1679068253387772200,6.188772216796875,0.06536258012056351,0.0507018156349659,-0.060475658625364304
1679068253408768300,6.209768310546875,0.06414084881544113,0.04642575979232788,-0.060475658625364304
1679068253428727300,6.229727294921875,0.06658431142568588,0.05009094998240471,-0.056810468435287476
1679068253448746200,6.249746337890625,0.06841690838336945,0.0507018156349659,-0.06230825558304787
1679068253469742000,6.2707421875,0.06841690838336945,0.051312681287527084,-0.05742133408784866
1679068253489762000,6.290761962890625,0.06719517707824707,0.0507018156349659,-0.060475658625364304
1679068253509720000,6.310719970703125,0.0659734457731247,0.04764748737215996,-0.060475658625364304
1679068253529740300,6.330740234375,0.06780604273080826,0.04948008432984352,-0.06108652427792549
1679068253550736100,6.351736083984375,0.06780604273080826,0.05253441259264946,-0.05742133408784866
1679068253570755000,6.371755126953125,0.06841690838336945,0.04886921867728233,-0.06414084881544113
1679068253590775300,6.391775390625,0.06658431142568588,0.045204028487205505,-0.05742133408784866
1679068253610733000,6.411733154296875,0.06963863968849182,0.0507018156349659,-0.06108652427792549
1679068253630753300,6.431753173828125,0.06780604273080826,0.04948008432984352,-0.05803219974040985
1679068253650772200,6.451772216796875,0.0708603709936142,0.05314527451992035,-0.06475171446800232
1679068253670731300,6.471731201171875,0.06719517707824707,0.04886921867728233,-0.06658431142568588
1679068253690750200,6.491750244140625,0.06719517707824707,0.05009094998240471,-0.06414084881544113
1679068253710769200,6.51176904296875,0.06414084881544113,0.04948008432984352,-0.06291911751031876
1679068253730728200,6.531728271484375,0.06902777403593063,0.0507018156349659,-0.0659734457731247
1679068253751724300,6.552724365234375,0.06658431142568588,0.04886921867728233,-0.060475658625364304
1679068253771743200,6.5727431640625,0.06475171446800232,0.05009094998240471,-0.05803219974040985
1679068253792739000,6.593739013671875,0.06719517707824707,0.05253441259264946,-0.06352998316287994
1679068253813736200,6.614736083984375,0.06780604273080826,0.05009094998240471,-0.059864792972803116
1679068253833755100,6.634755126953125,0.06475171446800232,0.05314527451992035,-0.06536258012056351
1679068253853774000,6.654774169921875,0.07147123664617538,0.04642575979232788,-0.06719517707824707
1679068253873733000,6.674733154296875,0.0659734457731247,0.04948008432984352,-0.06108652427792549
1679068253894729200,6.695729248046875,0.06230825558304787,0.04886921867728233,-0.06291911751031876
1679068253914748200,6.715748046875,0.06719517707824707,0.051312681287527084,-0.06658431142568588
1679068253934768000,6.73576806640625,0.06780604273080826,0.04703662544488907,-0.05864306539297104
1679068253954726100,6.75572607421875,0.06536258012056351,0.04642575979232788,-0.056810468435287476
1679068253975722200,6.77672216796875,0.0659734457731247,0.04948008432984352,-0.06475171446800232
1679068253995742200,6.7967421875,0.06963863968849182,0.05192354694008827,-0.06291911751031876
1679068254017776000,6.818776123046875,0.06658431142568588,0.05497787147760391,-0.06169738993048668
1679068254038772200,6.839772216796875,0.06841690838336945,0.048258353024721146,-0.06169738993048668
1679068254058730200,6.859730224609375,0.0708603709936142,0.04764748737215996,-0.06352998316287994
1679068254078749200,6.879749267578125,0.06658431142568588,0.05009094998240471,-0.06291911751031876
1679068254098769200,6.89976904296875,0.0659734457731247,0.04764748737215996,-0.06475171446800232
1679068254118727200,6.91972705078125,0.06475171446800232,0.05009094998240471,-0.06169738993048668
1679068254138747100,6.9397470703125,0.06963863968849182,0.048258353024721146,-0.06536258012056351
1679068254158766000,6.95976611328125,0.06841690838336945,0.05192354694008827,-0.06230825558304787
1679068254178727200,6.97972705078125,0.06780604273080826,0.04764748737215996,-0.06108652427792549
1679068254198686200,6.999686279296875,0.06352998316287994,0.051312681287527084,-0.059864792972803116
1679068254218766000,7.01976611328125,0.07024950534105301,0.051312681287527084,-0.060475658625364304
1679068254238725000,7.03972509765625,0.06780604273080826,0.0507018156349659,-0.06475171446800232
1679068254258744000,7.059744140625,0.06902777403593063,0.04764748737215996,-0.05742133408784866
1679068254278764300,7.079764404296875,0.06841690838336945,0.0507018156349659,-0.06536258012056351
1679068254298722000,7.09972216796875,0.0659734457731247,0.048258353024721146,-0.06352998316287994
1679068254318681000,7.11968115234375,0.0659734457731247,0.04764748737215996,-0.060475658625364304
1679068254339738000,7.140738037109375,0.06536258012056351,0.05375614017248154,-0.05864306539297104
1679068254359757000,7.160757080078125,0.06475171446800232,0.05192354694008827,-0.06169738993048668
1679068254379777300,7.18077734375,0.06841690838336945,0.04398229718208313,-0.06108652427792549
1679068254399735300,7.2007353515625,0.06902777403593063,0.04764748737215996,-0.05925392732024193
1679068254419755300,7.22075537109375,0.06780604273080826,0.05009094998240471,-0.060475658625364304
1679068254439774200,7.240774169921875,0.06841690838336945,0.04703662544488907,-0.05742133408784866
1679068254459733200,7.260733154296875,0.06475171446800232,0.042760565876960754,-0.05803219974040985
1679068254479752200,7.280752197265625,0.06536258012056351,0.04886921867728233,-0.05742133408784866
1679068254499771100,7.300771240234375,0.06536258012056351,0.04886921867728233,-0.06230825558304787
1679068254519730200,7.320730224609375,0.06658431142568588,0.04948008432984352,-0.06230825558304787
1679068254539688200,7.340688232421875,0.0659734457731247,0.04948008432984352,-0.05925392732024193
1679068254559769000,7.36076904296875,0.07024950534105301,0.04948008432984352,-0.06719517707824707
1679068254579727000,7.38072705078125,0.06780604273080826,0.051312681287527084,-0.06475171446800232
1679068254599747000,7.4007470703125,0.0659734457731247,0.0507018156349659,-0.06169738993048668
1679068254620560100,7.42156005859375,0.06658431142568588,0.05619960278272629,-0.06230825558304787
1679068254640762000,7.44176220703125,0.0708603709936142,0.05009094998240471,-0.06475171446800232
1679068254660721200,7.46172119140625,0.0659734457731247,0.05009094998240471,-0.06536258012056351
1679068254680740000,7.481739990234375,0.06719517707824707,0.04948008432984352,-0.05925392732024193
1679068254700760000,7.501760009765625,0.06719517707824707,0.054367005825042725,-0.056810468435287476
1679068254720718000,7.521718017578125,0.06902777403593063,0.04581489413976669,-0.06475171446800232
1679068254740738000,7.541738037109375,0.0659734457731247,0.0555887371301651,-0.06536258012056351
1679068254760696000,7.561696044921875,0.06719517707824707,0.05314527451992035,-0.0659734457731247
1679068254780777200,7.581777099609375,0.06841690838336945,0.04703662544488907,-0.06475171446800232
1679068254800735200,7.6017353515625,0.06780604273080826,0.051312681287527084,-0.06230825558304787
1679068254820755200,7.621755126953125,0.06780604273080826,0.04886921867728233,-0.06169738993048668
1679068254841751300,7.642751220703125,0.0708603709936142,0.05009094998240471,-0.06536258012056351
1679068254861770200,7.662770263671875,0.0708603709936142,0.04886921867728233,-0.06475171446800232
1679068254881729300,7.682729248046875,0.06536258012056351,0.04703662544488907,-0.060475658625364304
1679068254901748200,7.702748291015625,0.0659734457731247,0.04642575979232788,-0.06352998316287994
1679068254922744000,7.723744140625,0.07024950534105301,0.05253441259264946,-0.05803219974040985
1679068254943740200,7.744740234375,0.06414084881544113,0.048258353024721146,-0.05925392732024193
1679068254963760000,7.764760009765625,0.06719517707824707,0.04642575979232788,-0.06169738993048668
1679068254983718100,7.78471826171875,0.06719517707824707,0.051312681287527084,-0.05925392732024193
1679068255003737000,7.804737060546875,0.0659734457731247,0.0507018156349659,-0.05925392732024193
1679068255023757000,7.824757080078125,0.06841690838336945,0.04886921867728233,-0.0659734457731247
1679068255043776300,7.8447763671875,0.06780604273080826,0.05192354694008827,-0.06291911751031876
1679068255063735300,7.8647353515625,0.06841690838336945,0.048258353024721146,-0.06475171446800232
1679068255083754200,7.884754150390625,0.06841690838336945,0.04642575979232788,-0.06230825558304787
1679068255103774200,7.904774169921875,0.06841690838336945,0.05009094998240471,-0.06719517707824707
1679068255123732200,7.924732177734375,0.06475171446800232,0.04948008432984352,-0.06230825558304787
1679068255143752200,7.944752197265625,0.0708603709936142,0.048258353024721146,-0.06475171446800232
1679068255164748300,7.965748291015625,0.07024950534105301,0.048258353024721146,-0.05864306539297104
1679068255185746200,7.98674609375,0.06414084881544113,0.04886921867728233,-0.06352998316287994
1679068255205766100,8.00676611328125,0.0659734457731247,0.048258353024721146,-0.05803219974040985
1679068255225724200,8.02672412109375,0.06841690838336945,0.05253441259264946,-0.05497787147760391
1679068255247758000,8.048758056640626,0.06719517707824707,0.04581489413976669,-0.060475658625364304
1679068255267777300,8.06877734375,0.0659734457731247,0.04703662544488907,-0.05925392732024193
1679068255288773000,8.089773193359376,0.06841690838336945,0.04948008432984352,-0.0659734457731247
1679068255309770200,8.110770263671874,0.06230825558304787,0.051312681287527084,-0.059864792972803116
1679068255330766000,8.13176611328125,0.0659734457731247,0.04703662544488907,-0.06108652427792549
1679068255350724000,8.15172412109375,0.06719517707824707,0.05009094998240471,-0.059864792972803116
1679068255370743300,8.171743408203126,0.06352998316287994,0.0507018156349659,-0.06475171446800232
1679068255390763300,8.19176318359375,0.06841690838336945,0.04948008432984352,-0.06414084881544113
1679068255410721300,8.21172119140625,0.06719517707824707,0.04948008432984352,-0.060475658625364304
1679068255431778000,8.232778076171876,0.06719517707824707,0.048258353024721146,-0.059864792972803116
1679068255451737000,8.252737060546876,0.06719517707824707,0.05192354694008827,-0.06108652427792549
1679068255471634200,8.27263427734375,0.06414084881544113,0.04459316283464432,-0.05925392732024193
1679068255491776300,8.2927763671875,0.06108652427792549,0.04703662544488907,-0.0555887371301651
1679068255511612200,8.312612060546876,0.07024950534105301,0.05375614017248154,-0.06291911751031876
1679068255531754200,8.332754150390626,0.06291911751031876,0.048258353024721146,-0.06108652427792549
1679068255557838800,8.3588388671875,0.06658431142568588,0.04642575979232788,-0.06352998316287994
1679068255586625300,8.387625244140626,0.06658431142568588,0.04642575979232788,-0.06352998316287994
1679068255606645200,8.407645263671874,0.06719517707824707,0.04886921867728233,-0.06536258012056351
1679068255626543400,8.42754345703125,0.06658431142568588,0.04886921867728233,-0.05742133408784866
1679068255646537000,8.447536865234374,0.06230825558304787,0.04703662544488907,-0.059864792972803116
1679068255667533000,8.468532958984374,0.06719517707824707,0.0507018156349659,-0.05864306539297104
1679068255687552000,8.488552001953124,0.06658431142568588,0.0507018156349659,-0.06230825558304787
1679068255707572000,8.508572021484374,0.06536258012056351,0.04948008432984352,-0.06230825558304787
1679068255727530000,8.528530029296874,0.06475171446800232,0.04948008432984352,-0.06169738993048668
1679068255747550000,8.548550048828124,0.06658431142568588,0.04703662544488907,-0.06108652427792549
1679068255768546000,8.569546142578124,0.06475171446800232,0.04948008432984352,-0.06169738993048668
1679068255788565000,8.58956494140625,0.06841690838336945,0.05009094998240471,-0.06291911751031876
1679068255808524000,8.60952392578125,0.06841690838336945,0.05253441259264946,-0.06475171446800232
1679068255828543000,8.62954296875,0.06780604273080826,0.048258353024721146,-0.05803219974040985
1679068255848563000,8.64956298828125,0.06963863968849182,0.045204028487205505,-0.059864792972803116
1679068255868521000,8.66952099609375,0.06536258012056351,0.051312681287527084,-0.06291911751031876
1679068255888541000,8.689541015625,0.07208210229873657,0.05375614017248154,-0.05925392732024193
1679068255908560000,8.709559814453126,0.06780604273080826,0.054367005825042725,-0.059864792972803116
1679068255928519000,8.729518798828124,0.06719517707824707,0.05619960278272629,-0.06230825558304787
1679068255948537900,8.749537841796876,0.0659734457731247,0.04764748737215996,-0.059864792972803116
1679068255969534000,8.770533935546876,0.06352998316287994,0.04948008432984352,-0.05742133408784866
1679068255989554000,8.790553955078124,0.06963863968849182,0.04948008432984352,-0.06414084881544113
1679068256009512000,8.810511962890626,0.06475171446800232,0.04398229718208313,-0.05864306539297104
1679068256029532000,8.830531982421874,0.06719517707824707,0.04948008432984352,-0.06658431142568588
1679068256049550800,8.85055078125,0.07024950534105301,0.05009094998240471,-0.06230825558304787
1679068256069570000,8.870570068359376,0.06902777403593063,0.04886921867728233,-0.06352998316287994
1679068256089529000,8.890529052734376,0.06780604273080826,0.05009094998240471,-0.05803219974040985
1679068256109548000,8.910548095703126,0.06902777403593063,0.0507018156349659,-0.06352998316287994
1679068256130543900,8.9315439453125,0.06780604273080826,0.05375614017248154,-0.06230825558304787
1679068256150564000,8.951564208984376,0.0708603709936142,0.05314527451992035,-0.060475658625364304
1679068256170521900,8.97152197265625,0.06658431142568588,0.05192354694008827,-0.06414084881544113
1679068256190544000,8.9915439453125,0.06719517707824707,0.04764748737215996,-0.06169738993048668
1679068256210564000,9.011564208984375,0.0659734457731247,0.05314527451992035,-0.05497787147760391
1679068256230521900,9.03152197265625,0.06658431142568588,0.04398229718208313,-0.05925392732024193
1679068256250542000,9.0515419921875,0.06658431142568588,0.04948008432984352,-0.060475658625364304
1679068256270561000,9.07156103515625,0.06658431142568588,0.042760565876960754,-0.059864792972803116
1679068256290520000,9.09152001953125,0.06902777403593063,0.05253441259264946,-0.06108652427792549
1679068256310539000,9.1115390625,0.07024950534105301,0.05009094998240471,-0.0659734457731247
1679068256330559000,9.13155908203125,0.06230825558304787,0.04764748737215996,-0.06291911751031876
1679068256350517000,9.15151708984375,0.06963863968849182,0.05009094998240471,-0.06230825558304787
1679068256370537000,9.171536865234375,0.06352998316287994,0.04764748737215996,-0.060475658625364304
1679068256390556000,9.191555908203124,0.06352998316287994,0.04764748737215996,-0.056810468435287476
1679068256410515000,9.211514892578125,0.0659734457731247,0.05497787147760391,-0.0659734457731247
1679068256430473000,9.231472900390624,0.06841690838336945,0.045204028487205505,-0.05864306539297104
1679068256450553900,9.251553955078125,0.06841690838336945,0.04886921867728233,-0.06230825558304787
1679068256470573000,9.271572998046874,0.0659734457731247,0.04398229718208313,-0.0555887371301651
1679068256490531000,9.291531005859374,0.06475171446800232,0.0507018156349659,-0.06291911751031876
1679068256511527000,9.31252685546875,0.06352998316287994,0.05009094998240471,-0.056810468435287476
1679068256532524000,9.33352392578125,0.06902777403593063,0.05253441259264946,-0.06230825558304787
1679068256552543000,9.35354296875,0.06963863968849182,0.05009094998240471,-0.06230825558304787
1679068256572562000,9.37356201171875,0.06536258012056351,0.0507018156349659,-0.05925392732024193
1679068256592521000,9.39352099609375,0.0659734457731247,0.04886921867728233,-0.05925392732024193
1679068256612540000,9.413539794921874,0.06780604273080826,0.04764748737215996,-0.059864792972803116
1679068256632559900,9.433559814453124,0.06658431142568588,0.04764748737215996,-0.05742133408784866
1679068256652518000,9.453517822265624,0.06902777403593063,0.0555887371301651,-0.06230825558304787
1679068256672537900,9.473537841796874,0.06658431142568588,0.048258353024721146,-0.06108652427792549
1679068256692557000,9.49355712890625,0.07147123664617538,0.05375614017248154,-0.06230825558304787
1679068256713553000,9.514552978515624,0.06841690838336945,0.05619960278272629,-0.06108652427792549
1679068256733572900,9.53457275390625,0.07024950534105301,0.04581489413976669,-0.05925392732024193
1679068256753531000,9.55453076171875,0.06536258012056351,0.04642575979232788,-0.059864792972803116
1679068256773490000,9.574489990234374,0.06719517707824707,0.05253441259264946,-0.06536258012056351
1679068256793570000,9.594570068359374,0.0708603709936142,0.05314527451992035,-0.06230825558304787
1679068256814566000,9.61556591796875,0.0708603709936142,0.048258353024721146,-0.06352998316287994
1679068256834525000,9.63552490234375,0.06475171446800232,0.04703662544488907,-0.05619960278272629
1679068256854483000,9.65548291015625,0.0659734457731247,0.04948008432984352,-0.059864792972803116
1679068256875540000,9.6765400390625,0.06841690838336945,0.05253441259264946,-0.06414084881544113
1679068256895560000,9.696559814453124,0.06902777403593063,0.05314527451992035,-0.06352998316287994
1679068256916556000,9.71755615234375,0.06719517707824707,0.05314527451992035,-0.060475658625364304
1679068256936392000,9.737391845703126,0.06780604273080826,0.0507018156349659,-0.05925392732024193
1679068256956534000,9.757533935546874,0.06536258012056351,0.04948008432984352,-0.06291911751031876
1679068256976553000,9.777552978515626,0.06475171446800232,0.04886921867728233,-0.059864792972803116
1679068256996573000,9.797572998046874,0.06841690838336945,0.04703662544488907,-0.06352998316287994
1679068257016531000,9.817531005859376,0.06658431142568588,0.04764748737215996,-0.05864306539297104
1679068257036551000,9.837551025390624,0.06658431142568588,0.05009094998240471,-0.06291911751031876
1679068257057547000,9.858547119140624,0.06963863968849182,0.05314527451992035,-0.06291911751031876
1679068257077566000,9.87856591796875,0.0708603709936142,0.05192354694008827,-0.06658431142568588
1679068257097525000,9.89852490234375,0.06902777403593063,0.05314527451992035,-0.06230825558304787
1679068257117544000,9.9185439453125,0.0659734457731247,0.05253441259264946,-0.06230825558304787
1679068257137563000,9.93856298828125,0.0659734457731247,0.04581489413976669,-0.05803219974040985
1679068257157522000,9.95852197265625,0.06352998316287994,0.051312681287527084,-0.06414084881544113
1679068257178459000,9.979458984375,0.06963863968849182,0.05009094998240471,-0.06352998316287994
1679068257198540000,9.9995400390625,0.06902777403593063,0.04886921867728233,-0.060475658625364304
1679068257218559000,10.01955908203125,0.06902777403593063,0.04642575979232788,-0.060475658625364304
1679068257238518000,10.03951806640625,0.06902777403593063,0.051312681287527084,-0.06475171446800232
1679068257258537000,10.059536865234374,0.07147123664617538,0.045204028487205505,-0.06169738993048668
1679068257278557000,10.079556884765625,0.07147123664617538,0.0507018156349659,-0.06169738993048668
1679068257298515000,10.099514892578124,0.06963863968849182,0.04642575979232788,-0.05925392732024193
1679068257318535000,10.119534912109375,0.06841690838336945,0.04886921867728233,-0.06230825558304787
1679068257339531000,10.140531005859375,0.06536258012056351,0.04886921867728233,-0.0555887371301651
1679068257359550000,10.160550048828124,0.0659734457731247,0.05314527451992035,-0.06230825558304787
1679068257380546000,10.181546142578124,0.06902777403593063,0.04642575979232788,-0.060475658625364304
1679068257400505000,10.201505126953125,0.06658431142568588,0.042760565876960754,-0.059864792972803116
1679068257420524000,10.22152392578125,0.06902777403593063,0.05375614017248154,-0.060475658625364304
1679068257440544000,10.2415439453125,0.06719517707824707,0.04886921867728233,-0.05619960278272629
1679068257460563000,10.26156298828125,0.0659734457731247,0.04886921867728233,-0.05864306539297104
1679068257480522000,10.28152197265625,0.06536258012056351,0.05253441259264946,-0.05742133408784866
1679068257500541000,10.301541015625,0.06902777403593063,0.045204028487205505,-0.056810468435287476
1679068257521537000,10.322537109375,0.06414084881544113,0.051312681287527084,-0.05742133408784866
1679068257542350000,10.34335009765625,0.06414084881544113,0.04948008432984352,-0.060475658625364304
1679068257563529000,10.364529052734374,0.06780604273080826,0.05314527451992035,-0.06841690838336945
1679068257584525000,10.385525146484374,0.06536258012056351,0.04886921867728233,-0.06230825558304787
1679068257604545000,10.405544921875,0.06841690838336945,0.05253441259264946,-0.06169738993048668
1679068257624564000,10.42556396484375,0.0659734457731247,0.05009094998240471,-0.06352998316287994
1679068257644523000,10.44552294921875,0.06536258012056351,0.04948008432984352,-0.06108652427792549
1679068257664542000,10.4655419921875,0.06963863968849182,0.04948008432984352,-0.06414084881544113
1679068257684562000,10.48556201171875,0.06658431142568588,0.048258353024721146,-0.0555887371301651
1679068257705558000,10.50655810546875,0.06719517707824707,0.05009094998240471,-0.0555887371301651
1679068257726553900,10.527553955078124,0.06902777403593063,0.05253441259264946,-0.06108652427792549
1679068257747550000,10.548550048828124,0.06841690838336945,0.051312681287527084,-0.06230825558304787
1679068257767569000,10.56856884765625,0.06780604273080826,0.05619960278272629,-0.06780604273080826
1679068257787528000,10.58852783203125,0.06780604273080826,0.04764748737215996,-0.06536258012056351
1679068257809561000,10.61056103515625,0.06841690838336945,0.0507018156349659,-0.06230825558304787
1679068257830557000,10.631556884765626,0.06902777403593063,0.051312681287527084,-0.05864306539297104
1679068257850455000,10.651455078125,0.07024950534105301,0.04886921867728233,-0.06414084881544113
1679068257870535000,10.671534912109376,0.06902777403593063,0.05009094998240471,-0.05864306539297104
1679068257891531000,10.692531005859376,0.06719517707824707,0.04948008432984352,-0.05803219974040985
1679068257911551000,10.712551025390624,0.06902777403593063,0.04703662544488907,-0.0659734457731247
1679068257932547000,10.733547119140624,0.0659734457731247,0.04764748737215996,-0.05742133408784866
1679068257952566000,10.75356591796875,0.06658431142568588,0.05009094998240471,-0.06230825558304787
1679068257973561900,10.774561767578126,0.06841690838336945,0.048258353024721146,-0.06658431142568588
1679068257993521000,10.79452099609375,0.06536258012056351,0.0507018156349659,-0.059864792972803116
1679068258014517000,10.81551708984375,0.06719517707824707,0.05009094998240471,-0.05925392732024193
1679068258034536000,10.835535888671876,0.07024950534105301,0.04703662544488907,-0.059864792972803116
1679068258054556000,10.855555908203126,0.06902777403593063,0.04764748737215996,-0.059864792972803116
1679068258074574800,10.875574951171876,0.06169738993048668,0.04764748737215996,-0.06108652427792549
1679068258094534000,10.895533935546876,0.06414084881544113,0.04764748737215996,-0.0555887371301651
1679068258114553000,10.915552978515626,0.06352998316287994,0.048258353024721146,-0.05864306539297104
1679068258134573000,10.935572998046876,0.06352998316287994,0.045204028487205505,-0.06291911751031876
1679068258154531000,10.955531005859376,0.07024950534105301,0.05009094998240471,-0.06291911751031876
1679068258174492000,10.975491943359375,0.06475171446800232,0.05253441259264946,-0.05864306539297104
1679068258194573000,10.995572998046875,0.06902777403593063,0.05009094998240471,-0.05925392732024193
1679068258214470000,11.015469970703125,0.06902777403593063,0.05192354694008827,-0.06230825558304787
1679068258234551000,11.035551025390625,0.06841690838336945,0.05253441259264946,-0.06414084881544113
1679068258254570000,11.055570068359375,0.0659734457731247,0.04764748737215996,-0.05925392732024193
1679068258274529000,11.075529052734375,0.0708603709936142,0.04886921867728233,-0.06230825558304787
1679068258294548000,11.0955478515625,0.06719517707824707,0.048258353024721146,-0.056810468435287476
1679068258315544000,11.1165439453125,0.06963863968849182,0.05314527451992035,-0.06291911751031876
1679068258336540000,11.137539794921874,0.0659734457731247,0.05192354694008827,-0.05925392732024193
1679068258357536000,11.158535888671874,0.06414084881544113,0.04764748737215996,-0.05925392732024193
1679068258377556000,11.178555908203125,0.06658431142568588,0.048258353024721146,-0.05742133408784866
1679068258397575000,11.198574951171874,0.06963863968849182,0.05192354694008827,-0.06230825558304787
1679068258417534000,11.218533935546875,0.0659734457731247,0.04764748737215996,-0.05619960278272629
1679068258437553000,11.238552978515624,0.0659734457731247,0.04459316283464432,-0.060475658625364304
1679068258457572900,11.25857275390625,0.06291911751031876,0.04703662544488907,-0.06230825558304787
1679068258477531000,11.27853076171875,0.06841690838336945,0.04703662544488907,-0.05864306539297104
1679068258497550000,11.298550048828124,0.06963863968849182,0.04703662544488907,-0.060475658625364304
1679068258517570000,11.318570068359374,0.06352998316287994,0.05375614017248154,-0.06108652427792549
1679068258537528000,11.338528076171874,0.06658431142568588,0.048258353024721146,-0.06169738993048668
1679068258557548000,11.358548095703124,0.06475171446800232,0.048258353024721146,-0.06352998316287994
1679068258577567000,11.37856689453125,0.06658431142568588,0.048258353024721146,-0.05375614017248154
1679068258598563000,11.39956298828125,0.06841690838336945,0.05314527451992035,-0.06169738993048668
1679068258618521900,11.41952197265625,0.07024950534105301,0.04214970022439957,-0.056810468435287476
1679068258638541000,11.439541015625,0.06414084881544113,0.0507018156349659,-0.06475171446800232
1679068258658561000,11.45956103515625,0.0659734457731247,0.04642575979232788,-0.06169738993048668
1679068258679556900,11.480556884765624,0.06658431142568588,0.05497787147760391,-0.06230825558304787
1679068258700492000,11.501491943359374,0.06780604273080826,0.0507018156349659,-0.0555887371301651
1679068258721549000,11.522549072265624,0.06780604273080826,0.05253441259264946,-0.059864792972803116
1679068258741568000,11.542568115234374,0.06902777403593063,0.04642575979232788,-0.059864792972803116
1679068258761527000,11.562527099609374,0.06780604273080826,0.04764748737215996,-0.05742133408784866
1679068258781546000,11.5825458984375,0.0659734457731247,0.05253441259264946,-0.0659734457731247
1679068258801566000,11.60256591796875,0.06475171446800232,0.04764748737215996,-0.060475658625364304
1679068258821524000,11.62252392578125,0.06963863968849182,0.0555887371301651,-0.06352998316287994
1679068258841541600,11.642541748046876,0.0659734457731247,0.04703662544488907,-0.06108652427792549
1679068258861560600,11.662560546875,0.06780604273080826,0.05009094998240471,-0.060475658625364304
1679068258881519600,11.68251953125,0.0659734457731247,0.05619960278272629,-0.06230825558304787
1679068258901538600,11.70253857421875,0.06780604273080826,0.0507018156349659,-0.06230825558304787
1679068258921558500,11.72255859375,0.06658431142568588,0.045204028487205505,-0.05864306539297104
1679068258942554600,11.7435546875,0.06230825558304787,0.04398229718208313,-0.060475658625364304
1679068258962573600,11.763573486328125,0.06536258012056351,0.04581489413976669,-0.060475658625364304
1679068258982471700,11.7834716796875,0.06780604273080826,0.05375614017248154,-0.05803219974040985
1679068259002551600,11.803551513671875,0.0708603709936142,0.051312681287527084,-0.05619960278272629
1679068259022571500,11.823571533203125,0.0659734457731247,0.04764748737215996,-0.05864306539297104
1679068259042529500,11.843529541015625,0.06536258012056351,0.0507018156349659,-0.06658431142568588
1679068259062548500,11.863548583984375,0.06841690838336945,0.0507018156349659,-0.06108652427792549
1679068259084521500,11.885521484375,0.0708603709936142,0.054367005825042725,-0.06230825558304787
1679068259104541700,11.905541748046875,0.06780604273080826,0.05253441259264946,-0.06291911751031876
1679068259125537500,11.92653759765625,0.06352998316287994,0.05009094998240471,-0.059864792972803116
1679068259145495600,11.94649560546875,0.06536258012056351,0.04886921867728233,-0.05803219974040985
1679068259165514500,11.966514404296875,0.06536258012056351,0.04886921867728233,-0.0555887371301651
1679068259185537500,11.98653759765625,0.07024950534105301,0.04948008432984352,-0.059864792972803116
1679068259205556500,12.006556396484376,0.06841690838336945,0.04948008432984352,-0.06352998316287994
1679068259225514500,12.026514404296876,0.06841690838336945,0.051312681287527084,-0.06475171446800232
1679068259245534500,12.046534423828126,0.06719517707824707,0.05192354694008827,-0.06169738993048668
1679068259265553700,12.0665537109375,0.06780604273080826,0.048258353024721146,-0.05742133408784866
1679068259285573600,12.08657373046875,0.06352998316287994,0.04764748737215996,-0.0555887371301651
1679068259305531600,12.10653173828125,0.06475171446800232,0.04703662544488907,-0.06169738993048668
1679068259325551600,12.126551513671876,0.06291911751031876,0.04764748737215996,-0.05803219974040985
1679068259345570600,12.146570556640626,0.06658431142568588,0.051312681287527084,-0.06536258012056351
1679068259365529600,12.166529541015626,0.06536258012056351,0.048258353024721146,-0.05925392732024193
1679068259386525700,12.187525634765626,0.06658431142568588,0.04703662544488907,-0.06169738993048668
1679068259406544600,12.207544677734376,0.0659734457731247,0.05192354694008827,-0.06352998316287994
1679068259426564600,12.227564697265626,0.06780604273080826,0.05009094998240471,-0.06108652427792549
1679068259446461700,12.247461669921876,0.0659734457731247,0.04764748737215996,-0.060475658625364304
1679068259466542600,12.26754248046875,0.06658431142568588,0.04642575979232788,-0.05864306539297104
1679068259486561500,12.2875615234375,0.06780604273080826,0.05314527451992035,-0.06414084881544113
1679068259507557600,12.3085576171875,0.06780604273080826,0.05192354694008827,-0.06414084881544113
1679068259527333600,12.328333740234376,0.06475171446800232,0.04948008432984352,-0.05864306539297104
1679068259548573700,12.34957373046875,0.06780604273080826,0.05192354694008827,-0.05864306539297104
1679068259568531500,12.369531494140626,0.06658431142568588,0.05253441259264946,-0.06658431142568588
1679068259588551700,12.3895517578125,0.07147123664617538,0.04764748737215996,-0.06108652427792549
1679068259608570600,12.409570556640626,0.07024950534105301,0.0555887371301651,-0.06658431142568588
1679068259628529700,12.42952978515625,0.06780604273080826,0.04398229718208313,-0.060475658625364304
1679068259648548600,12.449548583984376,0.06658431142568588,0.04886921867728233,-0.06414084881544113
1679068259669544700,12.470544677734376,0.07147123664617538,0.04886921867728233,-0.06230825558304787
1679068259689564700,12.490564697265626,0.06902777403593063,0.051312681287527084,-0.06108652427792549
1679068259709522700,12.510522705078126,0.06902777403593063,0.05253441259264946,-0.06658431142568588
1679068259730518500,12.5315185546875,0.06780604273080826,0.05253441259264946,-0.06414084881544113
1679068259750538500,12.55153857421875,0.0659734457731247,0.05009094998240471,-0.06169738993048668
1679068259770557700,12.5715576171875,0.0659734457731247,0.04703662544488907,-0.06658431142568588
1679068259790515500,12.591515380859375,0.07024950534105301,0.05253441259264946,-0.06963863968849182
1679068259810535700,12.61153564453125,0.06902777403593063,0.05375614017248154,-0.06108652427792549
1679068259830554600,12.6315546875,0.06475171446800232,0.048258353024721146,-0.06169738993048668
1679068259850513700,12.651513671875,0.0708603709936142,0.04886921867728233,-0.06352998316287994
1679068259870532600,12.67153271484375,0.06963863968849182,0.04948008432984352,-0.05925392732024193
1679068259890552600,12.691552490234375,0.06719517707824707,0.0507018156349659,-0.06475171446800232
1679068259910571500,12.711571533203125,0.06414084881544113,0.048258353024721146,-0.056810468435287476
1679068259930530600,12.731530517578125,0.07208210229873657,0.051312681287527084,-0.06352998316287994
1679068259950549500,12.751549560546875,0.06841690838336945,0.04886921867728233,-0.06169738993048668
1679068259970569500,12.771569580078125,0.07147123664617538,0.054367005825042725,-0.06475171446800232
1679068259990527500,12.791527587890625,0.07024950534105301,0.05314527451992035,-0.059864792972803116
1679068260010547500,12.81154736328125,0.06658431142568588,0.04642575979232788,-0.05864306539297104
1679068260030566700,12.831566650390625,0.0659734457731247,0.051312681287527084,-0.06291911751031876
1679068260050525700,12.851525634765625,0.0659734457731247,0.05009094998240471,-0.05925392732024193
1679068260070544600,12.871544677734375,0.06841690838336945,0.05314527451992035,-0.06352998316287994
1679068260090564600,12.891564697265625,0.07391469180583954,0.054367005825042725,-0.06658431142568588
1679068260110522600,12.911522705078125,0.06841690838336945,0.04764748737215996,-0.06291911751031876
1679068260130541600,12.93154150390625,0.06719517707824707,0.045204028487205505,-0.05742133408784866
1679068260150561500,12.9515615234375,0.06963863968849182,0.051312681287527084,-0.05864306539297104
1679068260170469400,12.971469482421876,0.07208210229873657,0.05253441259264946,-0.0659734457731247
1679068260190491400,12.991491455078124,0.0659734457731247,0.04642575979232788,-0.06475171446800232
1679068260210511400,13.011511474609375,0.06780604273080826,0.05009094998240471,-0.06291911751031876
1679068260230469400,13.031469482421874,0.06719517707824707,0.04703662544488907,-0.056810468435287476
1679068260250489300,13.0514892578125,0.06719517707824707,0.05009094998240471,-0.06169738993048668
1679068260270508300,13.07150830078125,0.06352998316287994,0.04886921867728233,-0.06291911751031876
1679068260290467300,13.09146728515625,0.06963863968849182,0.04581489413976669,-0.05864306539297104
1679068260310486300,13.111486328125,0.06658431142568588,0.05192354694008827,-0.0659734457731247
1679068260330506200,13.13150634765625,0.06780604273080826,0.04764748737215996,-0.06475171446800232
1679068260350464300,13.15146435546875,0.06536258012056351,0.0507018156349659,-0.06169738993048668
1679068260370484200,13.171484130859374,0.06658431142568588,0.04581489413976669,-0.0659734457731247
1679068260390503400,13.19150341796875,0.06719517707824707,0.05192354694008827,-0.06169738993048668
1679068260410523400,13.2115234375,0.07269296050071716,0.051312681287527084,-0.06352998316287994
1679068260431519200,13.232519287109374,0.07024950534105301,0.0507018156349659,-0.059864792972803116
1679068260451477200,13.252477294921874,0.06841690838336945,0.04948008432984352,-0.060475658625364304
1679068260471497500,13.27249755859375,0.07024950534105301,0.05497787147760391,-0.06291911751031876
1679068260492493300,13.293493408203124,0.06719517707824707,0.05192354694008827,-0.06169738993048668
1679068260512512300,13.31351220703125,0.07208210229873657,0.045204028487205505,-0.06475171446800232
1679068260532471300,13.33347119140625,0.06414084881544113,0.04703662544488907,-0.060475658625364304
1679068260552490200,13.353490234375,0.06719517707824707,0.0507018156349659,-0.05925392732024193
1679068260572448300,13.3734482421875,0.06475171446800232,0.045204028487205505,-0.06291911751031876
1679068260592468500,13.393468505859374,0.06780604273080826,0.048258353024721146,-0.06475171446800232
1679068260612487400,13.4134873046875,0.0659734457731247,0.0507018156349659,-0.06352998316287994
1679068260632507400,13.43350732421875,0.06475171446800232,0.05009094998240471,-0.06230825558304787
1679068260652465400,13.45346533203125,0.06780604273080826,0.054367005825042725,-0.06108652427792549
1679068260673522400,13.4745224609375,0.06352998316287994,0.04581489413976669,-0.05803219974040985
1679068260693481500,13.4944814453125,0.0659734457731247,0.04886921867728233,-0.06475171446800232
1679068260713500400,13.51450048828125,0.06780604273080826,0.04948008432984352,-0.059864792972803116
1679068260733520400,13.534520263671874,0.06963863968849182,0.04703662544488907,-0.06108652427792549
1679068260753478400,13.554478515625,0.06475171446800232,0.04764748737215996,-0.06414084881544113
1679068260773498400,13.574498291015624,0.0659734457731247,0.05192354694008827,-0.0659734457731247
1679068260793517300,13.594517333984374,0.06841690838336945,0.04764748737215996,-0.06291911751031876
1679068260813476400,13.614476318359374,0.06780604273080826,0.04948008432984352,-0.060475658625364304
1679068260834472400,13.635472412109374,0.06780604273080826,0.05314527451992035,-0.06352998316287994
1679068260855468300,13.65646826171875,0.0659734457731247,0.0555887371301651,-0.06230825558304787
1679068260875487200,13.6764873046875,0.06658431142568588,0.04886921867728233,-0.06169738993048668
1679068260895507500,13.696507568359374,0.06719517707824707,0.05192354694008827,-0.06475171446800232
1679068260915282400,13.716282470703124,0.06108652427792549,0.045204028487205505,-0.05803219974040985
1679068260935485400,13.7364853515625,0.07147123664617538,0.045204028487205505,-0.06108652427792549
1679068260955504400,13.75650439453125,0.06780604273080826,0.05009094998240471,-0.06352998316287994
1679068260975524400,13.7765244140625,0.0659734457731247,0.05009094998240471,-0.06108652427792549
1679068260995421400,13.79642138671875,0.06536258012056351,0.051312681287527084,-0.06414084881544113
1679068261016478500,13.817478515625,0.06536258012056351,0.04642575979232788,-0.05375614017248154
1679068261037474300,13.838474365234376,0.0708603709936142,0.04886921867728233,-0.06414084881544113
1679068261059508200,13.86050830078125,0.0659734457731247,0.04764748737215996,-0.059864792972803116
1679068261079466200,13.88046630859375,0.07024950534105301,0.05497787147760391,-0.05742133408784866
1679068261099486500,13.900486572265624,0.06719517707824707,0.048258353024721146,-0.06475171446800232
1679068261119505400,13.92050537109375,0.06841690838336945,0.05375614017248154,-0.06291911751031876
1679068261139464400,13.94046435546875,0.06841690838336945,0.05253441259264946,-0.06658431142568588
1679068261159483400,13.9604833984375,0.07024950534105301,0.05314527451992035,-0.06291911751031876
1679068261179444200,13.9804443359375,0.06780604273080826,0.05009094998240471,-0.060475658625364304
1679068261199464400,14.00046435546875,0.06902777403593063,0.04581489413976669,-0.05925392732024193
1679068261219483400,14.0204833984375,0.07147123664617538,0.051312681287527084,-0.06291911751031876
1679068261239503400,14.04050341796875,0.06841690838336945,0.04581489413976669,-0.06352998316287994
1679068261259522300,14.060522216796874,0.06902777403593063,0.048258353024721146,-0.06414084881544113
1679068261279480300,14.080480224609374,0.07330382615327835,0.05009094998240471,-0.06414084881544113
1679068261300476400,14.101476318359374,0.06291911751031876,0.048258353024721146,-0.060475658625364304
1679068261321473300,14.122473388671875,0.06719517707824707,0.05192354694008827,-0.06536258012056351
1679068261341492200,14.1424921875,0.06719517707824707,0.048258353024721146,-0.059864792972803116
1679068261362488300,14.16348828125,0.06536258012056351,0.05497787147760391,-0.06108652427792549
1679068261382446300,14.1834462890625,0.06475171446800232,0.04581489413976669,-0.059864792972803116
1679068261402466300,14.20346630859375,0.06658431142568588,0.05009094998240471,-0.05619960278272629
1679068261422424300,14.22342431640625,0.06780604273080826,0.051312681287527084,-0.0659734457731247
1679068261442444300,14.2434443359375,0.06536258012056351,0.054367005825042725,-0.06108652427792549
1679068261462402300,14.26340234375,0.06658431142568588,0.04886921867728233,-0.06108652427792549
1679068261482483500,14.2834833984375,0.06414084881544113,0.04642575979232788,-0.05619960278272629
1679068261503479300,14.304479248046874,0.06658431142568588,0.05314527451992035,-0.056810468435287476
1679068261524475400,14.325475341796874,0.06719517707824707,0.04948008432984352,-0.059864792972803116
1679068261544494300,14.345494384765624,0.06719517707824707,0.051312681287527084,-0.05925392732024193
1679068261564514300,14.365514404296874,0.0659734457731247,0.04948008432984352,-0.05803219974040985
1679068261586486300,14.387486328125,0.06291911751031876,0.04337143152952194,-0.059864792972803116
1679068261606506200,14.40750634765625,0.06963863968849182,0.05192354694008827,-0.06108652427792549
1679068261626464300,14.42746435546875,0.06780604273080826,0.05192354694008827,-0.06536258012056351
1679068261646484500,14.447484375,0.06658431142568588,0.04703662544488907,-0.06169738993048668
1679068261666503400,14.46750341796875,0.06780604273080826,0.045204028487205505,-0.060475658625364304
1679068261686523400,14.4875234375,0.06658431142568588,0.05009094998240471,-0.05925392732024193
1679068261706481400,14.5074814453125,0.06719517707824707,0.05009094998240471,-0.06230825558304787
1679068261726501400,14.52750146484375,0.06902777403593063,0.04703662544488907,-0.05864306539297104
1679068261747497500,14.54849755859375,0.06963863968849182,0.048258353024721146,-0.05864306539297104
1679068261767516400,14.568516357421874,0.06719517707824707,0.05619960278272629,-0.06536258012056351
1679068261787475500,14.588475341796874,0.0708603709936142,0.05009094998240471,-0.05925392732024193
1679068261807494400,14.608494384765624,0.06841690838336945,0.04948008432984352,-0.059864792972803116
1679068261828490200,14.629490234375,0.06658431142568588,0.04764748737215996,-0.059864792972803116
1679068261849486300,14.650486328125,0.06841690838336945,0.05497787147760391,-0.06414084881544113
1679068261870482400,14.671482421875,0.06536258012056351,0.0507018156349659,-0.06352998316287994
1679068261891478300,14.692478271484376,0.07147123664617538,0.05192354694008827,-0.06658431142568588
1679068261911437300,14.712437255859374,0.06536258012056351,0.04886921867728233,-0.05925392732024193
1679068261931517400,14.732517333984376,0.06902777403593063,0.04642575979232788,-0.06414084881544113
1679068261951415300,14.752415283203124,0.06352998316287994,0.04642575979232788,-0.06108652427792549
1679068261971495400,14.772495361328126,0.06841690838336945,0.04703662544488907,-0.06230825558304787
1679068261991454500,14.792454345703124,0.06352998316287994,0.04764748737215996,-0.060475658625364304
1679068262011473400,14.812473388671876,0.06841690838336945,0.051312681287527084,-0.06536258012056351
1679068262032469200,14.83346923828125,0.06780604273080826,0.04886921867728233,-0.06352998316287994
1679068262052489500,14.853489501953124,0.06719517707824707,0.048258353024721146,-0.059864792972803116
1679068262072508400,14.87350830078125,0.06536258012056351,0.04948008432984352,-0.05803219974040985
1679068262092467500,14.893467529296874,0.06719517707824707,0.05253441259264946,-0.059864792972803116
1679068262113463300,14.91446337890625,0.06719517707824707,0.05314527451992035,-0.06291911751031876
1679068262133482200,14.934482177734376,0.06658431142568588,0.04886921867728233,-0.06475171446800232
1679068262154478300,14.955478271484376,0.06414084881544113,0.04337143152952194,-0.059864792972803116
1679068262174439400,14.975439453125,0.06902777403593063,0.05375614017248154,-0.059864792972803116
1679068262194520300,14.995520263671875,0.06780604273080826,0.04703662544488907,-0.05925392732024193
1679068262214417400,15.01541748046875,0.0659734457731247,0.05192354694008827,-0.06169738993048668
1679068262234498300,15.035498291015625,0.06780604273080826,0.04642575979232788,-0.059864792972803116
1679068262254517200,15.055517333984374,0.06719517707824707,0.05192354694008827,-0.06169738993048668
1679068262275513300,15.076513427734374,0.0659734457731247,0.05375614017248154,-0.060475658625364304
1679068262295472400,15.096472412109375,0.06902777403593063,0.05192354694008827,-0.06352998316287994
1679068262315491300,15.1164912109375,0.07024950534105301,0.04948008432984352,-0.060475658625364304
1679068262335450400,15.136450439453125,0.06658431142568588,0.05742133408784866,-0.0659734457731247
1679068262355469300,15.15646923828125,0.06658431142568588,0.05314527451992035,-0.05925392732024193
1679068262375488300,15.17648828125,0.06719517707824707,0.04948008432984352,-0.06169738993048668
1679068262395508200,15.19650830078125,0.06352998316287994,0.0507018156349659,-0.05619960278272629
1679068262415405300,15.2164052734375,0.07269296050071716,0.0507018156349659,-0.06352998316287994
1679068262436523300,15.237523193359374,0.06719517707824707,0.05314527451992035,-0.06169738993048668
1679068262456482300,15.257482421875,0.06414084881544113,0.04642575979232788,-0.059864792972803116
1679068262476501200,15.277501220703124,0.0708603709936142,0.04642575979232788,-0.06108652427792549
1679068262496521500,15.297521484375,0.06414084881544113,0.0507018156349659,-0.05864306539297104
1679068262516479200,15.317479248046874,0.06841690838336945,0.0507018156349659,-0.06108652427792549
1679068262536499500,15.33749951171875,0.06780604273080826,0.04398229718208313,-0.05803219974040985
1679068262556518400,15.357518310546874,0.06536258012056351,0.048258353024721146,-0.059864792972803116
1679068262576416300,15.377416259765624,0.07024950534105301,0.051312681287527084,-0.06414084881544113
1679068262596496400,15.397496337890624,0.06475171446800232,0.04214970022439957,-0.05742133408784866
1679068262616516400,15.417516357421874,0.06902777403593063,0.048258353024721146,-0.06169738993048668
1679068262637512400,15.438512451171874,0.06719517707824707,0.048258353024721146,-0.0555887371301651
1679068262657470500,15.458470458984374,0.06963863968849182,0.048258353024721146,-0.056810468435287476
1679068262677490400,15.478490478515624,0.06658431142568588,0.04398229718208313,-0.056810468435287476
1679068262697509400,15.49850927734375,0.0659734457731247,0.05253441259264946,-0.06169738993048668
1679068262718505500,15.51950537109375,0.06475171446800232,0.04703662544488907,-0.06291911751031876
1679068262738464300,15.53946435546875,0.06475171446800232,0.04948008432984352,-0.05925392732024193
1679068262759521300,15.560521240234374,0.06658431142568588,0.04948008432984352,-0.06414084881544113
1679068262780517400,15.581517333984374,0.06780604273080826,0.04642575979232788,-0.05864306539297104
1679068262800475400,15.601475341796874,0.06841690838336945,0.054367005825042725,-0.06414084881544113
1679068262820495400,15.621495361328124,0.06719517707824707,0.0507018156349659,-0.054367005825042725
1679068262840453400,15.641453369140624,0.0708603709936142,0.05253441259264946,-0.06352998316287994
1679068262860473300,15.661473388671874,0.06902777403593063,0.05009094998240471,-0.060475658625364304
1679068262880492300,15.6814921875,0.06963863968849182,0.05314527451992035,-0.06169738993048668
1679068262901488400,15.70248828125,0.06902777403593063,0.05253441259264946,-0.06291911751031876
1679068262921508400,15.72250830078125,0.06658431142568588,0.05497787147760391,-0.060475658625364304
1679068262941466400,15.74246630859375,0.06414084881544113,0.04886921867728233,-0.06414084881544113
1679068262962523400,15.7635234375,0.06414084881544113,0.051312681287527084,-0.05497787147760391
1679068262982482400,15.783482421875,0.06658431142568588,0.05009094998240471,-0.06169738993048668
1679068263003478300,15.804478271484374,0.06841690838336945,0.05009094998240471,-0.06719517707824707
1679068263024474400,15.825474365234374,0.07269296050071716,0.05314527451992035,-0.06108652427792549
1679068263044493300,15.845493408203126,0.06963863968849182,0.048258353024721146,-0.06291911751031876
1679068263064513300,15.86551318359375,0.07147123664617538,0.0507018156349659,-0.06230825558304787
1679068263084471300,15.88547119140625,0.06902777403593063,0.04886921867728233,-0.06291911751031876
1679068263104491300,15.9054912109375,0.06841690838336945,0.04886921867728233,-0.06108652427792549
1679068263124510500,15.925510498046876,0.06414084881544113,0.045204028487205505,-0.059864792972803116
1679068263144468500,15.945468505859376,0.06719517707824707,0.04886921867728233,-0.06291911751031876
1679068263164488400,15.965488525390626,0.06291911751031876,0.04764748737215996,-0.060475658625364304
1679068263184510500,15.985510498046875,0.06902777403593063,0.0507018156349659,-0.06536258012056351
1679068263204468200,16.00546826171875,0.06658431142568588,0.04764748737215996,-0.060475658625364304
1679068263224488400,16.025488525390625,0.06536258012056351,0.04642575979232788,-0.06230825558304787
1679068263244507400,16.04550732421875,0.06658431142568588,0.04459316283464432,-0.0555887371301651
1679068263264466400,16.065466552734375,0.06963863968849182,0.051312681287527084,-0.06291911751031876
1679068263284485400,16.0854853515625,0.06475171446800232,0.05375614017248154,-0.06536258012056351
1679068263304505300,16.10550537109375,0.06475171446800232,0.0507018156349659,-0.060475658625364304
1679068263324463400,16.12546337890625,0.06780604273080826,0.05314527451992035,-0.05497787147760391
1679068263344483300,16.1454833984375,0.07208210229873657,0.05375614017248154,-0.06658431142568588
1679068263364502300,16.165502197265624,0.06902777403593063,0.04764748737215996,-0.06291911751031876
1679068263384522200,16.185522216796876,0.0659734457731247,0.04886921867728233,-0.060475658625364304
1679068263405518300,16.206518310546876,0.07024950534105301,0.04886921867728233,-0.06414084881544113
1679068263425476400,16.226476318359374,0.06536258012056351,0.05314527451992035,-0.06108652427792549
1679068263445496300,16.246496337890626,0.06658431142568588,0.04764748737215996,-0.05803219974040985
1679068263465515300,16.266515380859374,0.06780604273080826,0.042760565876960754,-0.059864792972803116
1679068263485351400,16.286351318359376,0.06719517707824707,0.05192354694008827,-0.06475171446800232
1679068263505493200,16.3064931640625,0.06902777403593063,0.0507018156349659,-0.059864792972803116
1679068263525513500,16.326513427734376,0.06719517707824707,0.054367005825042725,-0.06169738993048668
1679068263545471200,16.34647119140625,0.06169738993048668,0.048258353024721146,-0.06108652427792549
1679068263565490400,16.366490478515626,0.07024950534105301,0.04764748737215996,-0.06352998316287994
1679068263585510400,16.386510498046874,0.06719517707824707,0.048258353024721146,-0.06169738993048668
1679068263605468400,16.406468505859376,0.06536258012056351,0.05314527451992035,-0.05619960278272629
1679068263625488400,16.42648828125,0.0708603709936142,0.04764748737215996,-0.06475171446800232
1679068263645507300,16.44650732421875,0.0708603709936142,0.04886921867728233,-0.06169738993048668
1679068263665466400,16.46646630859375,0.06291911751031876,0.04764748737215996,-0.06475171446800232
1679068263685485300,16.4864853515625,0.06719517707824707,0.04764748737215996,-0.06108652427792549
1679068263705505300,16.50650537109375,0.06780604273080826,0.04703662544488907,-0.05864306539297104
1679068263725463300,16.52646337890625,0.06780604273080826,0.04642575979232788,-0.06291911751031876
1679068263745483300,16.546483154296876,0.06841690838336945,0.05192354694008827,-0.05925392732024193
1679068263765502500,16.56650244140625,0.0659734457731247,0.05192354694008827,-0.05742133408784866
1679068263785522400,16.5865224609375,0.0659734457731247,0.05009094998240471,-0.06291911751031876
1679068263805480400,16.60648046875,0.06475171446800232,0.05009094998240471,-0.059864792972803116
1679068263826476300,16.627476318359374,0.06841690838336945,0.04948008432984352,-0.0555887371301651
1679068263846496300,16.647496337890626,0.06658431142568588,0.0507018156349659,-0.05803219974040985
1679068263866515500,16.667515380859374,0.06414084881544113,0.05009094998240471,-0.06169738993048668
1679068263886474200,16.68747412109375,0.0659734457731247,0.0507018156349659,-0.06169738993048668
1679068263907470300,16.70847021484375,0.06841690838336945,0.05314527451992035,-0.06475171446800232
1679068263927489300,16.7284892578125,0.06536258012056351,0.04886921867728233,-0.06475171446800232
1679068263947509200,16.74850927734375,0.06780604273080826,0.04459316283464432,-0.060475658625364304
1679068263967467300,16.76846728515625,0.06414084881544113,0.05497787147760391,-0.054367005825042725
1679068263987486500,16.788486572265626,0.06719517707824707,0.05375614017248154,-0.06169738993048668
1679068264007506400,16.80850634765625,0.06841690838336945,0.05009094998240471,-0.06169738993048668
1679068264027464400,16.82846435546875,0.07147123664617538,0.045204028487205505,-0.06108652427792549
1679068264047484400,16.848484375,0.0659734457731247,0.051312681287527084,-0.06414084881544113
1679068264067503400,16.86850341796875,0.06841690838336945,0.051312681287527084,-0.06230825558304787
1679068264087523300,16.8885234375,0.06963863968849182,0.05009094998240471,-0.06169738993048668
1679068264107420400,16.90842041015625,0.0659734457731247,0.04948008432984352,-0.06352998316287994
1679068264127501300,16.928501220703126,0.06841690838336945,0.04703662544488907,-0.05864306539297104
1679068264148497400,16.949497314453126,0.06780604273080826,0.048258353024721146,-0.060475658625364304
1679068264170469400,16.971469482421874,0.06963863968849182,0.05375614017248154,-0.059864792972803116
1679068264190491400,16.991491455078126,0.07024950534105301,0.05497787147760391,-0.06780604273080826
1679068264210511400,17.011511474609375,0.06780604273080826,0.054367005825042725,-0.06291911751031876
1679068264230469400,17.031469482421876,0.06658431142568588,0.04764748737215996,-0.06108652427792549
1679068264250489300,17.0514892578125,0.06841690838336945,0.048258353024721146,-0.06230825558304787
1679068264270508300,17.07150830078125,0.06902777403593063,0.04948008432984352,-0.060475658625364304
1679068264291504400,17.09250439453125,0.06841690838336945,0.04948008432984352,-0.05864306539297104
1679068264312500200,17.113500244140624,0.06780604273080826,0.0507018156349659,-0.06352998316287994
1679068264332520400,17.1335205078125,0.07024950534105301,0.051312681287527084,-0.06169738993048668
1679068264352478500,17.153478515625,0.06902777403593063,0.0507018156349659,-0.06352998316287994
1679068264372315400,17.1733154296875,0.06780604273080826,0.05314527451992035,-0.06169738993048668
1679068264392456400,17.19345654296875,0.06658431142568588,0.05009094998240471,-0.05925392732024193
1679068264412476400,17.213476318359376,0.06414084881544113,0.04948008432984352,-0.06414084881544113
1679068264433472300,17.23447216796875,0.06536258012056351,0.048258353024721146,-0.05925392732024193
1679068264453491500,17.254491455078124,0.06902777403593063,0.054367005825042725,-0.06108652427792549
1679068264474487300,17.2754873046875,0.06536258012056351,0.048258353024721146,-0.059864792972803116
1679068264494507300,17.29550732421875,0.07147123664617538,0.054367005825042725,-0.06719517707824707
1679068264514465300,17.31546533203125,0.06841690838336945,0.04703662544488907,-0.059864792972803116
1679068264534485200,17.3354853515625,0.06780604273080826,0.05192354694008827,-0.06352998316287994
1679068264554504400,17.35550439453125,0.06780604273080826,0.05192354694008827,-0.06414084881544113
1679068264574524400,17.3755244140625,0.0708603709936142,0.04764748737215996,-0.06230825558304787
1679068264594482400,17.395482421875,0.06352998316287994,0.04948008432984352,-0.05375614017248154
1679068264614502400,17.41550244140625,0.0708603709936142,0.05009094998240471,-0.06230825558304787
1679068264634521300,17.435521240234376,0.06841690838336945,0.04764748737215996,-0.05925392732024193
1679068264654479400,17.455479248046874,0.06841690838336945,0.05253441259264946,-0.06352998316287994
1679068264675476500,17.4764765625,0.06963863968849182,0.04459316283464432,-0.05803219974040985
1679068264695434200,17.496434326171876,0.06658431142568588,0.04642575979232788,-0.06108652427792549
1679068264716491300,17.5174912109375,0.06658431142568588,0.04703662544488907,-0.059864792972803116
1679068264736511200,17.53751123046875,0.06963863968849182,0.05314527451992035,-0.06475171446800232
1679068264756469200,17.55746923828125,0.06719517707824707,0.048258353024721146,-0.06352998316287994
1679068264776488400,17.577488525390624,0.06536258012056351,0.0507018156349659,-0.060475658625364304
1679068264796508400,17.59750830078125,0.06963863968849182,0.05375614017248154,-0.06169738993048668
1679068264816466400,17.617466552734374,0.0659734457731247,0.05497787147760391,-0.06414084881544113
1679068264836486400,17.637486328125,0.06841690838336945,0.05192354694008827,-0.06169738993048668
1679068264856505300,17.65750537109375,0.06841690838336945,0.04886921867728233,-0.06414084881544113
1679068264876464400,17.67746435546875,0.06780604273080826,0.05192354694008827,-0.06291911751031876
1679068264896483300,17.6974833984375,0.06475171446800232,0.054367005825042725,-0.06230825558304787
1679068264917479400,17.7184794921875,0.06841690838336945,0.05192354694008827,-0.05742133408784866
1679068264938475300,17.739475341796876,0.06841690838336945,0.05253441259264946,-0.05864306539297104
1679068264958495200,17.7594951171875,0.06230825558304787,0.04764748737215996,-0.05742133408784866
1679068264979491300,17.7804912109375,0.06108652427792549,0.04703662544488907,-0.05864306539297104
1679068264999510300,17.80051025390625,0.07147123664617538,0.0555887371301651,-0.06719517707824707
1679068265019469300,17.82046923828125,0.07269296050071716,0.05375614017248154,-0.060475658625364304
1679068265039488300,17.84048828125,0.06719517707824707,0.0555887371301651,-0.06352998316287994
1679068265059508200,17.86050830078125,0.06719517707824707,0.054367005825042725,-0.06291911751031876
1679068265079466200,17.88046630859375,0.06963863968849182,0.05253441259264946,-0.0659734457731247
1679068265099486500,17.900486572265624,0.0659734457731247,0.0507018156349659,-0.05864306539297104
1679068265119505400,17.92050537109375,0.0659734457731247,0.05253441259264946,-0.05742133408784866
1679068265139464400,17.94046435546875,0.06780604273080826,0.04703662544488907,-0.06169738993048668
1679068265159483400,17.9604833984375,0.0708603709936142,0.05375614017248154,-0.06230825558304787
1679068265179444200,17.9804443359375,0.06963863968849182,0.04886921867728233,-0.06108652427792549
1679068265199464400,18.00046435546875,0.06536258012056351,0.04642575979232788,-0.06230825558304787
1679068265219483400,18.0204833984375,0.06658431142568588,0.051312681287527084,-0.056810468435287476
1679068265239503400,18.04050341796875,0.06780604273080826,0.04948008432984352,-0.05864306539297104
1679068265259522300,18.060522216796876,0.06414084881544113,0.048258353024721146,-0.05925392732024193
1679068265279480300,18.080480224609374,0.06719517707824707,0.04948008432984352,-0.06169738993048668
1679068265299500300,18.100500244140626,0.06658431142568588,0.05253441259264946,-0.06414084881544113
1679068265320496400,18.121496337890626,0.06963863968849182,0.05253441259264946,-0.06230825558304787
1679068265340515300,18.141515380859374,0.06902777403593063,0.04948008432984352,-0.06169738993048668
1679068265360474400,18.161474365234376,0.06780604273080826,0.051312681287527084,-0.060475658625364304
1679068265380493300,18.181493408203124,0.06352998316287994,0.0507018156349659,-0.06108652427792549
1679068265401489400,18.202489501953124,0.0659734457731247,0.04948008432984352,-0.05497787147760391
1679068265421509400,18.22250927734375,0.06475171446800232,0.05253441259264946,-0.05864306539297104
1679068265441467400,18.24246728515625,0.06536258012056351,0.04886921867728233,-0.056810468435287476
1679068265463501300,18.264501220703124,0.06963863968849182,0.04948008432984352,-0.06352998316287994
1679068265483520300,18.284520263671876,0.06719517707824707,0.05009094998240471,-0.06108652427792549
1679068265503479300,18.304479248046874,0.060475658625364304,0.05375614017248154,-0.06230825558304787
1679068265523498200,18.324498291015626,0.0659734457731247,0.05375614017248154,-0.059864792972803116
1679068265543518500,18.3445185546875,0.06841690838336945,0.054367005825042725,-0.060475658625364304
1679068265564514300,18.365514404296874,0.06902777403593063,0.05192354694008827,-0.06169738993048668
1679068265584472300,18.385472412109376,0.06963863968849182,0.05192354694008827,-0.0659734457731247
1679068265605468400,18.406468505859376,0.06536258012056351,0.05192354694008827,-0.06414084881544113
1679068265625488400,18.42648828125,0.06475171446800232,0.05009094998240471,-0.05619960278272629
1679068265645507300,18.44650732421875,0.06780604273080826,0.048258353024721146,-0.06108652427792549
1679068265665466400,18.46646630859375,0.06719517707824707,0.04948008432984352,-0.056810468435287476
1679068265685485300,18.4864853515625,0.0708603709936142,0.051312681287527084,-0.06536258012056351
1679068265705505300,18.50650537109375,0.06352998316287994,0.05375614017248154,-0.06352998316287994
1679068265726501400,18.52750146484375,0.06719517707824707,0.04337143152952194,-0.05803219974040985
1679068265747497500,18.54849755859375,0.0659734457731247,0.04948008432984352,-0.06169738993048668
1679068265767516400,18.568516357421874,0.06475171446800232,0.04703662544488907,-0.06475171446800232
1679068265788512300,18.58951220703125,0.06902777403593063,0.05192354694008827,-0.06108652427792549
1679068265808471300,18.60947119140625,0.06658431142568588,0.05009094998240471,-0.06475171446800232
1679068265828490200,18.629490234375,0.06841690838336945,0.04703662544488907,-0.06169738993048668
1679068265848510500,18.649510498046876,0.0659734457731247,0.0507018156349659,-0.059864792972803116
1679068265868468200,18.66946826171875,0.0659734457731247,0.05192354694008827,-0.06230825558304787
1679068265888488400,18.689488525390626,0.06536258012056351,0.04764748737215996,-0.06169738993048668
1679068265908507400,18.70950732421875,0.06719517707824707,0.04948008432984352,-0.06108652427792549
1679068265929503200,18.730503173828126,0.06719517707824707,0.0507018156349659,-0.06108652427792549
1679068265949523500,18.7505234375,0.06536258012056351,0.05192354694008827,-0.06291911751031876
1679068265969481500,18.7704814453125,0.06780604273080826,0.04886921867728233,-0.059864792972803116
1679068265989501400,18.79050146484375,0.06658431142568588,0.0507018156349659,-0.05864306539297104
1679068266009459500,18.81045947265625,0.07024950534105301,0.051312681287527084,-0.056810468435287476
1679068266029479400,18.8304794921875,0.06536258012056351,0.04764748737215996,-0.05864306539297104
1679068266049498400,18.850498291015626,0.06719517707824707,0.056810468435287476,-0.06108652427792549
1679068266069517300,18.870517333984374,0.0708603709936142,0.04703662544488907,-0.06658431142568588
1679068266089476400,18.890476318359376,0.06719517707824707,0.0507018156349659,-0.05803219974040985
1679068266109495300,18.910495361328124,0.06719517707824707,0.051312681287527084,-0.06169738993048668
1679068266129515300,18.930515380859376,0.06841690838336945,0.04642575979232788,-0.05925392732024193
1679068266149473300,18.950473388671874,0.06902777403593063,0.05009094998240471,-0.05925392732024193
1679068266169493200,18.9704931640625,0.0708603709936142,0.04886921867728233,-0.05925392732024193
1679068266190491400,18.991491455078126,0.06719517707824707,0.048258353024721146,-0.060475658625364304
1679068266211487200,19.0124873046875,0.06841690838336945,0.05009094998240471,-0.06352998316287994
1679068266231507500,19.032507568359375,0.0659734457731247,0.05375614017248154,-0.0555887371301651
1679068266251465500,19.052465576171876,0.06414084881544113,0.05253441259264946,-0.05742133408784866
1679068266271485400,19.0724853515625,0.06719517707824707,0.05314527451992035,-0.06169738993048668
1679068266291504400,19.09250439453125,0.0659734457731247,0.04459316283464432,-0.05864306539297104
1679068266311463400,19.11246337890625,0.06719517707824707,0.0507018156349659,-0.06352998316287994
1679068266331421400,19.13242138671875,0.06780604273080826,0.048258353024721146,-0.059864792972803116
1679068266351502300,19.15250244140625,0.06658431142568588,0.04886921867728233,-0.06291911751031876
1679068266371521300,19.172521240234374,0.0659734457731247,0.0507018156349659,-0.0659734457731247
1679068266391297300,19.19229736328125,0.0659734457731247,0.048258353024721146,-0.059864792972803116
1679068266411499300,19.212499267578124,0.06780604273080826,0.04459316283464432,-0.060475658625364304
1679068266431519200,19.232519287109376,0.06902777403593063,0.04764748737215996,-0.05864306539297104
1679068266452515300,19.253515380859376,0.06841690838336945,0.05192354694008827,-0.06352998316287994
1679068266472412400,19.273412353515624,0.06658431142568588,0.0507018156349659,-0.06169738993048668
1679068266493469400,19.294469482421874,0.06841690838336945,0.04886921867728233,-0.06291911751031876
1679068266513489400,19.314489501953126,0.06658431142568588,0.04581489413976669,-0.0555887371301651
1679068266533508400,19.33450830078125,0.06414084881544113,0.048258353024721146,-0.06108652427792549
1679068266553467400,19.35446728515625,0.06536258012056351,0.04886921867728233,-0.060475658625364304
1679068266573486300,19.374486328125,0.07024950534105301,0.05009094998240471,-0.05742133408784866
1679068266593506300,19.39450634765625,0.06719517707824707,0.0507018156349659,-0.06475171446800232
1679068266613464300,19.41446435546875,0.06780604273080826,0.04886921867728233,-0.06108652427792549
1679068266633422300,19.43442236328125,0.06475171446800232,0.051312681287527084,-0.06536258012056351
1679068266653503200,19.454503173828126,0.06780604273080826,0.048258353024721146,-0.059864792972803116
1679068266673522400,19.4745224609375,0.06719517707824707,0.05253441259264946,-0.06414084881544113
1679068266693298400,19.49429833984375,0.06414084881544113,0.04886921867728233,-0.05742133408784866
1679068266713500400,19.51450048828125,0.07391469180583954,0.05497787147760391,-0.06291911751031876
1679068266735473400,19.536473388671876,0.06963863968849182,0.04886921867728233,-0.059864792972803116
1679068266756469200,19.55746923828125,0.06902777403593063,0.05009094998240471,-0.06108652427792549
1679068266777465300,19.57846533203125,0.06475171446800232,0.05009094998240471,-0.05742133408784866
1679068266797484300,19.598484375,0.06475171446800232,0.04337143152952194,-0.06108652427792549
1679068266817504300,19.618504150390624,0.06841690838336945,0.054367005825042725,-0.060475658625364304
1679068266837523500,19.6385234375,0.07208210229873657,0.05009094998240471,-0.06230825558304787
1679068266857482200,19.658482177734374,0.06902777403593063,0.04581489413976669,-0.06169738993048668
1679068266877501400,19.67850146484375,0.06536258012056351,0.04703662544488907,-0.05864306539297104
1679068266897338400,19.69833837890625,0.06414084881544113,0.048258353024721146,-0.06169738993048668
1679068266917479400,19.7184794921875,0.06902777403593063,0.05253441259264946,-0.06352998316287994
1679068266937499400,19.73849951171875,0.06780604273080826,0.04642575979232788,-0.05803219974040985
1679068266957518300,19.758518310546876,0.0659734457731247,0.051312681287527084,-0.06108652427792549
1679068266977477400,19.778477294921874,0.06291911751031876,0.048258353024721146,-0.060475658625364304
1679068266997496300,19.798496337890626,0.07147123664617538,0.0507018156349659,-0.06291911751031876
1679068267018492400,19.819492431640626,0.06230825558304787,0.04581489413976669,-0.05803219974040985
1679068267038512400,19.839512451171874,0.06352998316287994,0.04398229718208313,-0.05803219974040985
1679068267059508200,19.86050830078125,0.06841690838336945,0.0507018156349659,-0.06291911751031876
1679068267079466200,19.88046630859375,0.06719517707824707,0.0507018156349659,-0.06169738993048668
1679068267099425300,19.90042529296875,0.06414084881544113,0.05314527451992035,-0.06108652427792549
1679068267119505400,19.92050537109375,0.06414084881544113,0.04764748737215996,-0.05803219974040985
1679068267139464400,19.94046435546875,0.06780604273080826,0.045204028487205505,-0.059864792972803116
1679068267159483400,19.9604833984375,0.06780604273080826,0.0507018156349659,-0.06230825558304787
1679068267179505400,19.98050537109375,0.06414084881544113,0.04948008432984352,-0.06536258012056351
1679068267200501200,20.001501220703126,0.0659734457731247,0.04948008432984352,-0.05742133408784866
1679068267220521500,20.021521484375,0.06658431142568588,0.048258353024721146,-0.06169738993048668
1679068267240479200,20.041479248046876,0.06902777403593063,0.048258353024721146,-0.059864792972803116
1679068267261475300,20.062475341796876,0.0659734457731247,0.04581489413976669,-0.056810468435287476
1679068267281495300,20.082495361328125,0.06963863968849182,0.04764748737215996,-0.06108652427792549
1679068267301514200,20.10251416015625,0.06719517707824707,0.04764748737215996,-0.054367005825042725
1679068267321473300,20.122473388671875,0.06780604273080826,0.04703662544488907,-0.06108652427792549
1679068267341492200,20.1424921875,0.0659734457731247,0.05192354694008827,-0.06108652427792549
1679068267361511400,20.162511474609374,0.06475171446800232,0.0507018156349659,-0.06291911751031876
1679068267381470500,20.182470458984376,0.07147123664617538,0.051312681287527084,-0.060475658625364304
1679068267401489400,20.202489501953124,0.07024950534105301,0.0507018156349659,-0.06169738993048668
1679068267421509400,20.22250927734375,0.06780604273080826,0.05314527451992035,-0.06108652427792549
1679068267441406500,20.242406494140624,0.06291911751031876,0.04703662544488907,-0.06108652427792549
1679068267462463200,20.263463134765626,0.06963863968849182,0.05009094998240471,-0.059864792972803116
1679068267482483500,20.2834833984375,0.06780604273080826,0.0507018156349659,-0.06291911751031876
1679068267502502400,20.30350244140625,0.06780604273080826,0.051312681287527084,-0.06230825558304787
1679068267523498200,20.324498291015626,0.06475171446800232,0.04581489413976669,-0.06352998316287994
1679068267544494300,20.345494384765626,0.06902777403593063,0.04642575979232788,-0.06230825558304787
1679068267564514300,20.365514404296874,0.06902777403593063,0.05314527451992035,-0.06536258012056351
1679068267585510400,20.386510498046874,0.06536258012056351,0.0507018156349659,-0.05619960278272629
1679068267605346300,20.40634619140625,0.06780604273080826,0.04337143152952194,-0.06169738993048668
1679068267625488400,20.42648828125,0.06475171446800232,0.04764748737215996,-0.06414084881544113
1679068267645507300,20.44650732421875,0.06475171446800232,0.048258353024721146,-0.059864792972803116
1679068267665466400,20.46646630859375,0.07024950534105301,0.04886921867728233,-0.05864306539297104
1679068267685485300,20.4864853515625,0.06658431142568588,0.05192354694008827,-0.05864306539297104
1679068267705505300,20.50650537109375,0.06963863968849182,0.05253441259264946,-0.06536258012056351
1679068267725459700,20.526459716796875,0.06414084881544113,0.04886921867728233,-0.06169738993048668
1679068267745479700,20.546479736328124,0.07024950534105301,0.054367005825042725,-0.06169738993048668
1679068267765498600,20.56649853515625,0.06536258012056351,0.04581489413976669,-0.05803219974040985
1679068267785518600,20.5865185546875,0.06291911751031876,0.048258353024721146,-0.05864306539297104
1679068267805469200,20.60646923828125,0.06536258012056351,0.04581489413976669,-0.05192354694008827
1679068267825489200,20.6264892578125,0.06902777403593063,0.04703662544488907,-0.06352998316287994
1679068267845508000,20.646508056640624,0.06352998316287994,0.04398229718208313,-0.05314527451992035
1679068267865466000,20.666466064453125,0.06475171446800232,0.048258353024721146,-0.05925392732024193
1679068267885486000,20.686486083984374,0.06780604273080826,0.04398229718208313,-0.059864792972803116
1679068267905505000,20.706505126953125,0.06291911751031876,0.04459316283464432,-0.05864306539297104
1679068267925464000,20.726464111328124,0.06352998316287994,0.048258353024721146,-0.056810468435287476
1679068267945483000,20.74648291015625,0.07208210229873657,0.05375614017248154,-0.060475658625364304
1679068267965503000,20.7665029296875,0.06536258012056351,0.04459316283464432,-0.06169738993048668
1679068267985461000,20.7864609375,0.06963863968849182,0.04703662544488907,-0.06169738993048668
1679068268005481000,20.80648095703125,0.06902777403593063,0.04337143152952194,-0.056810468435287476
1679068268026477000,20.82747705078125,0.06414084881544113,0.04459316283464432,-0.059864792972803116
1679068268046496000,20.84749609375,0.06536258012056351,0.048258353024721146,-0.06536258012056351
1679068268066455000,20.867455078125,0.06352998316287994,0.048258353024721146,-0.06108652427792549
1679068268086474000,20.887473876953123,0.06719517707824707,0.04581489413976669,-0.05864306539297104
1679068268106494000,20.907493896484375,0.06719517707824707,0.0507018156349659,-0.06352998316287994
1679068268126452000,20.927451904296873,0.06841690838336945,0.05192354694008827,-0.06169738993048668
1679068268146472200,20.94747216796875,0.06352998316287994,0.04459316283464432,-0.06169738993048668
1679068268166491100,20.9674912109375,0.0659734457731247,0.048258353024721146,-0.05925392732024193
1679068268186452000,20.987451904296876,0.06230825558304787,0.04948008432984352,-0.06169738993048668
1679068268207509000,21.008509033203126,0.06475171446800232,0.04459316283464432,-0.0555887371301651
1679068268227468000,21.028468017578124,0.06658431142568588,0.04886921867728233,-0.06108652427792549
1679068268247487000,21.048487060546876,0.06780604273080826,0.04703662544488907,-0.05864306539297104
1679068268267446000,21.068446044921874,0.06902777403593063,0.04642575979232788,-0.06169738993048668
1679068268288503000,21.0895029296875,0.06536258012056351,0.048258353024721146,-0.060475658625364304
1679068268309499100,21.1104990234375,0.06414084881544113,0.04642575979232788,-0.06169738993048668
1679068268329457200,21.13045703125,0.06108652427792549,0.045204028487205505,-0.059864792972803116
1679068268349477000,21.15047705078125,0.06780604273080826,0.04886921867728233,-0.060475658625364304
1679068268369496000,21.17049609375,0.07147123664617538,0.05925392732024193,-0.06536258012056351
1679068268389455000,21.190455078125,0.06719517707824707,0.05009094998240471,-0.06108652427792549
1679068268409474000,21.21047412109375,0.06719517707824707,0.05253441259264946,-0.05497787147760391
1679068268429493000,21.230492919921875,0.06719517707824707,0.05009094998240471,-0.06108652427792549
1679068268449452000,21.2504521484375,0.06780604273080826,0.048258353024721146,-0.0659734457731247
1679068268469471000,21.270470947265625,0.06658431142568588,0.0507018156349659,-0.05925392732024193
1679068268489430000,21.290429931640624,0.06841690838336945,0.051312681287527084,-0.0659734457731247
1679068268509510100,21.31051025390625,0.06719517707824707,0.04948008432984352,-0.06169738993048668
1679068268529469200,21.33046923828125,0.06841690838336945,0.04886921867728233,-0.06291911751031876
1679068268549488000,21.350488037109375,0.06536258012056351,0.04398229718208313,-0.05864306539297104
1679068268569447200,21.370447265625,0.060475658625364304,0.04642575979232788,-0.05742133408784866
1679068268589466000,21.390466064453125,0.0659734457731247,0.04581489413976669,-0.0659734457731247
1679068268609486000,21.410486083984374,0.06719517707824707,0.05009094998240471,-0.06169738993048668
1679068268629505000,21.430505126953125,0.06475171446800232,0.045204028487205505,-0.0555887371301651
1679068268649464000,21.450464111328124,0.06536258012056351,0.04948008432984352,-0.06169738993048668
1679068268669483000,21.47048291015625,0.06475171446800232,0.051312681287527084,-0.05864306539297104
1679068268691456000,21.4924560546875,0.06719517707824707,0.04948008432984352,-0.056810468435287476
1679068268713489200,21.5144892578125,0.0659734457731247,0.04886921867728233,-0.06169738993048668
1679068268735462100,21.536462158203125,0.06352998316287994,0.04948008432984352,-0.05375614017248154
1679068268756458000,21.5574580078125,0.06902777403593063,0.04703662544488907,-0.06719517707824707
1679068268776477200,21.577477294921874,0.06658431142568588,0.04764748737215996,-0.06230825558304787
1679068268796497200,21.5974970703125,0.06536258012056351,0.04948008432984352,-0.05742133408784866
1679068268817493000,21.618492919921874,0.0659734457731247,0.0507018156349659,-0.06536258012056351
1679068268838489000,21.639489013671874,0.06963863968849182,0.05253441259264946,-0.06352998316287994
1679068268860462000,21.661462158203125,0.06780604273080826,0.04764748737215996,-0.06108652427792549
1679068268880481000,21.68148095703125,0.06291911751031876,0.051312681287527084,-0.05803219974040985
1679068268900501000,21.7015009765625,0.06169738993048668,0.04886921867728233,-0.06230825558304787
1679068268920459000,21.721458984375,0.06291911751031876,0.04703662544488907,-0.05375614017248154
1679068268941455000,21.742455078125,0.06841690838336945,0.051312681287527084,-0.06352998316287994
1679068268961475000,21.76247509765625,0.06841690838336945,0.0507018156349659,-0.059864792972803116
1679068268982471200,21.78347119140625,0.06536258012056351,0.05375614017248154,-0.060475658625364304
1679068269002490000,21.803489990234375,0.0659734457731247,0.0507018156349659,-0.06108652427792549
1679068269022510000,21.823510009765624,0.06719517707824707,0.04948008432984352,-0.06352998316287994
1679068269042407200,21.8434072265625,0.0659734457731247,0.04642575979232788,-0.06230825558304787
1679068269063403000,21.864403076171875,0.06291911751031876,0.045204028487205505,-0.060475658625364304
1679068269083483100,21.884483154296873,0.05925392732024193,0.04459316283464432,-0.05864306539297104
1679068269103442200,21.904442138671875,0.0659734457731247,0.0507018156349659,-0.06352998316287994
1679068269124499200,21.925499267578125,0.06719517707824707,0.04581489413976669,-0.060475658625364304
1679068269144457000,21.94545703125,0.0708603709936142,0.05192354694008827,-0.06230825558304787
1679068269164477200,21.965477294921875,0.06536258012056351,0.04642575979232788,-0.05619960278272629
1679068269184499200,21.985499267578124,0.06658431142568588,0.0507018156349659,-0.0708603709936142
1679068269204457000,22.00545703125,0.06536258012056351,0.05009094998240471,-0.06108652427792549
1679068269224477200,22.025477294921874,0.06841690838336945,0.04703662544488907,-0.06536258012056351
1679068269244496100,22.04549609375,0.06841690838336945,0.05192354694008827,-0.059864792972803116
1679068269264455200,22.065455078125,0.06780604273080826,0.054367005825042725,-0.05864306539297104
1679068269284230100,22.085230224609376,0.06902777403593063,0.04948008432984352,-0.05925392732024193
1679068269304494000,22.105494140625,0.06658431142568588,0.04642575979232788,-0.05619960278272629
1679068269324452000,22.1254521484375,0.06658431142568588,0.04948008432984352,-0.06352998316287994
1679068269344472000,22.14547216796875,0.07147123664617538,0.051312681287527084,-0.0555887371301651
1679068269365468200,22.16646826171875,0.07024950534105301,0.04642575979232788,-0.06108652427792549
1679068269385487000,22.186487060546874,0.06475171446800232,0.04703662544488907,-0.060475658625364304
1679068269406483200,22.207483154296874,0.06658431142568588,0.04764748737215996,-0.060475658625364304
1679068269426503200,22.227503173828126,0.06352998316287994,0.0507018156349659,-0.06536258012056351
1679068269446461200,22.247461181640624,0.06902777403593063,0.0507018156349659,-0.06352998316287994
1679068269466420000,22.267419921875,0.06719517707824707,0.0507018156349659,-0.05742133408784866
1679068269486500000,22.2875,0.06352998316287994,0.05375614017248154,-0.06475171446800232
1679068269507496200,22.30849609375,0.06414084881544113,0.0507018156349659,-0.06169738993048668
1679068269527455000,22.328455078125,0.06780604273080826,0.05009094998240471,-0.05742133408784866
1679068269547474200,22.34847412109375,0.06658431142568588,0.051312681287527084,-0.060475658625364304
1679068269568470000,22.369469970703125,0.06658431142568588,0.04948008432984352,-0.05925392732024193
1679068269590504200,22.391504150390624,0.06536258012056351,0.05253441259264946,-0.060475658625364304
1679068269610462000,22.4114619140625,0.06230825558304787,0.04764748737215996,-0.06230825558304787
1679068269631458000,22.4324580078125,0.06658431142568588,0.04459316283464432,-0.06414084881544113
1679068269651478000,22.45247802734375,0.07024950534105301,0.0507018156349659,-0.06352998316287994
1679068269671436000,22.47243603515625,0.06841690838336945,0.05009094998240471,-0.06169738993048668
1679068269691456000,22.4924560546875,0.06719517707824707,0.04886921867728233,-0.05803219974040985
1679068269712452000,22.5134521484375,0.06902777403593063,0.05314527451992035,-0.06230825558304787
1679068269734485000,22.535485107421874,0.06658431142568588,0.05192354694008827,-0.06352998316287994
1679068269754505000,22.5555048828125,0.06475171446800232,0.05192354694008827,-0.06291911751031876
1679068269775501000,22.5765009765625,0.0659734457731247,0.0507018156349659,-0.05925392732024193
1679068269795459000,22.596458984375,0.06841690838336945,0.048258353024721146,-0.054367005825042725
1679068269815479000,22.61647900390625,0.06719517707824707,0.05009094998240471,-0.06414084881544113
1679068269835498000,22.636498046875,0.06230825558304787,0.04703662544488907,-0.06108652427792549
1679068269855457000,22.65645703125,0.0659734457731247,0.056810468435287476,-0.060475658625364304
1679068269875476000,22.67647607421875,0.07147123664617538,0.048258353024721146,-0.06414084881544113
1679068269895496200,22.69649609375,0.06780604273080826,0.0507018156349659,-0.06169738993048668
1679068269915454000,22.716453857421875,0.06841690838336945,0.04703662544488907,-0.06230825558304787
1679068269935413000,22.7364130859375,0.06658431142568588,0.042760565876960754,-0.05742133408784866
1679068269955493000,22.7564931640625,0.06352998316287994,0.05253441259264946,-0.06719517707824707
1679068269976489000,22.777489013671875,0.07024950534105301,0.04948008432984352,-0.0659734457731247
1679068269997485000,22.798485107421875,0.06291911751031876,0.04642575979232788,-0.05925392732024193
1679068270018481200,22.819481201171875,0.06658431142568588,0.05375614017248154,-0.05925392732024193
1679068270038501000,22.839501220703124,0.0708603709936142,0.05009094998240471,-0.06475171446800232
1679068270059497000,22.8604970703125,0.0659734457731247,0.04948008432984352,-0.06230825558304787
1679068270079272200,22.880272216796875,0.06230825558304787,0.05009094998240471,-0.060475658625364304
1679068270099475200,22.90047509765625,0.06963863968849182,0.05619960278272629,-0.06230825558304787
1679068270119494100,22.920494140625,0.06841690838336945,0.05192354694008827,-0.06658431142568588
1679068270139269000,22.94026904296875,0.06963863968849182,0.05314527451992035,-0.06352998316287994
1679068270160510000,22.961510009765625,0.06963863968849182,0.04703662544488907,-0.06169738993048668
1679068270180471000,22.981470947265624,0.06536258012056351,0.04642575979232788,-0.06352998316287994
1679068270200490000,23.001489990234376,0.06414084881544113,0.05009094998240471,-0.06230825558304787
1679068270221425200,23.022425048828126,0.06902777403593063,0.05009094998240471,-0.060475658625364304
1679068270241506000,23.042506103515624,0.06780604273080826,0.05009094998240471,-0.060475658625364304
1679068270262502100,23.063502197265624,0.06719517707824707,0.04948008432984352,-0.06230825558304787
1679068270282460200,23.083460205078126,0.06902777403593063,0.05497787147760391,-0.06291911751031876
1679068270303456000,23.1044560546875,0.0659734457731247,0.05009094998240471,-0.0555887371301651
1679068270323476000,23.12447607421875,0.06902777403593063,0.04459316283464432,-0.06475171446800232
1679068270343495200,23.1444951171875,0.06902777403593063,0.05314527451992035,-0.06230825558304787
1679068270363454000,23.164453857421876,0.07024950534105301,0.048258353024721146,-0.06475171446800232
1679068270383473200,23.18447314453125,0.06841690838336945,0.051312681287527084,-0.060475658625364304
1679068270403493000,23.2044931640625,0.06963863968849182,0.04886921867728233,-0.059864792972803116
1679068270423512000,23.224511962890624,0.06658431142568588,0.048258353024721146,-0.06352998316287994
1679068270443470000,23.244469970703125,0.06536258012056351,0.04948008432984352,-0.05925392732024193
1679068270463490000,23.264489990234374,0.06780604273080826,0.054367005825042725,-0.06169738993048668
1679068270483509000,23.284509033203125,0.06719517707824707,0.04948008432984352,-0.06108652427792549
1679068270503468000,23.304468017578124,0.0659734457731247,0.048258353024721146,-0.05925392732024193
1679068270523487000,23.324487060546875,0.06658431142568588,0.04948008432984352,-0.06230825558304787
1679068270543507200,23.344507080078124,0.06536258012056351,0.04703662544488907,-0.05803219974040985
1679068270563404000,23.364404052734375,0.07024950534105301,0.05314527451992035,-0.06780604273080826
1679068270583485200,23.384485107421874,0.06536258012056351,0.05253441259264946,-0.06230825558304787
1679068270603504000,23.404504150390625,0.0708603709936142,0.051312681287527084,-0.06719517707824707
1679068270623463200,23.424463134765624,0.06719517707824707,0.04948008432984352,-0.06291911751031876
1679068270644459000,23.445458984375,0.06841690838336945,0.04764748737215996,-0.06108652427792549
1679068270664478000,23.46547802734375,0.06902777403593063,0.0507018156349659,-0.060475658625364304
1679068270684498200,23.485498291015624,0.0659734457731247,0.04948008432984352,-0.060475658625364304
1679068270704456200,23.505456298828125,0.0659734457731247,0.04886921867728233,-0.06352998316287994
1679068270724476200,23.52547607421875,0.06536258012056351,0.04459316283464432,-0.056810468435287476
1679068270744495000,23.5454951171875,0.06719517707824707,0.04764748737215996,-0.06169738993048668
1679068270765491200,23.5664912109375,0.0659734457731247,0.054367005825042725,-0.06414084881544113
1679068270787464200,23.588464111328125,0.0708603709936142,0.051312681287527084,-0.06658431142568588
1679068270807483100,23.608483154296874,0.06902777403593063,0.045204028487205505,-0.06291911751031876
1679068270827503000,23.628503173828125,0.06536258012056351,0.04459316283464432,-0.060475658625364304
1679068270847400200,23.648400146484374,0.0659734457731247,0.05375614017248154,-0.060475658625364304
1679068270868396000,23.66939599609375,0.06780604273080826,0.05009094998240471,-0.05925392732024193
1679068270888477200,23.689477294921875,0.06963863968849182,0.04886921867728233,-0.06475171446800232
1679068270908435200,23.709435302734374,0.06658431142568588,0.04764748737215996,-0.05925392732024193
1679068270928455200,23.729455078125,0.06780604273080826,0.04764748737215996,-0.06108652427792549
1679068270948474000,23.74947412109375,0.0708603709936142,0.04764748737215996,-0.06108652427792549
1679068270968494000,23.769494140625,0.060475658625364304,0.05192354694008827,-0.06169738993048668
1679068270988452000,23.7894521484375,0.06841690838336945,0.05009094998240471,-0.060475658625364304
1679068271008471000,23.809470947265623,0.06902777403593063,0.05253441259264946,-0.06291911751031876
1679068271028491000,23.829490966796875,0.06963863968849182,0.05192354694008827,-0.06414084881544113
1679068271048510000,23.849510009765623,0.06475171446800232,0.04886921867728233,-0.06291911751031876
1679068271069506000,23.870506103515623,0.06780604273080826,0.04886921867728233,-0.05925392732024193
1679068271090503200,23.891503173828124,0.0659734457731247,0.04398229718208313,-0.05925392732024193
1679068271110461200,23.911461181640625,0.07147123664617538,0.05375614017248154,-0.06230825558304787
1679068271131457000,23.93245703125,0.0659734457731247,0.048258353024721146,-0.05925392732024193
1679068271151476000,23.95247607421875,0.06841690838336945,0.04948008432984352,-0.06169738993048668
1679068271171435000,23.97243505859375,0.06658431142568588,0.04886921867728233,-0.06108652427792549
1679068271191457000,23.99245703125,0.06475171446800232,0.04764748737215996,-0.05864306539297104
1679068271211476000,24.01247607421875,0.06719517707824707,0.0507018156349659,-0.060475658625364304
1679068271232472000,24.03347216796875,0.06719517707824707,0.051312681287527084,-0.06169738993048668
1679068271252492000,24.053491943359376,0.0659734457731247,0.05009094998240471,-0.05742133408784866
1679068271273488100,24.074488037109376,0.06902777403593063,0.04642575979232788,-0.056810468435287476
1679068271293507000,24.094507080078124,0.0659734457731247,0.0507018156349659,-0.0659734457731247
1679068271313466000,24.114466064453126,0.06658431142568588,0.051312681287527084,-0.060475658625364304
1679068271333485000,24.134485107421874,0.06658431142568588,0.04642575979232788,-0.059864792972803116
1679068271353505000,24.154505126953126,0.06780604273080826,0.05009094998240471,-0.05864306539297104
1679068271373463000,24.174463134765624,0.06719517707824707,0.04581489413976669,-0.05864306539297104
1679068271393422000,24.194422119140626,0.0659734457731247,0.05192354694008827,-0.05803219974040985
1679068271413441000,24.21444091796875,0.06475171446800232,0.04948008432984352,-0.060475658625364304
1679068271434498000,24.235498046875,0.06902777403593063,0.04948008432984352,-0.06414084881544113
1679068271454457000,24.25545703125,0.06719517707824707,0.04703662544488907,-0.06291911751031876
1679068271474476000,24.27547607421875,0.06414084881544113,0.0507018156349659,-0.059864792972803116
1679068271494496000,24.29549609375,0.06719517707824707,0.05192354694008827,-0.059864792972803116
1679068271514454000,24.3154541015625,0.0659734457731247,0.048258353024721146,-0.05925392732024193
1679068271534474000,24.335473876953124,0.06658431142568588,0.05009094998240471,-0.06291911751031876
1679068271554493200,24.3554931640625,0.06352998316287994,0.045204028487205505,-0.06108652427792549
1679068271574513200,24.37551318359375,0.0708603709936142,0.054367005825042725,-0.06475171446800232
1679068271594471200,24.39547119140625,0.06658431142568588,0.04703662544488907,-0.0659734457731247
1679068271614491100,24.4154912109375,0.0659734457731247,0.04642575979232788,-0.06230825558304787
1679068271634510000,24.435510009765625,0.06963863968849182,0.05253441259264946,-0.06475171446800232
1679068271655506200,24.456506103515625,0.06475171446800232,0.04581489413976669,-0.05497787147760391
1679068271675465000,24.47646484375,0.06841690838336945,0.05009094998240471,-0.05925392732024193
1679068271695484200,24.496484130859375,0.07024950534105301,0.05009094998240471,-0.06291911751031876
1679068271715503000,24.516503173828124,0.06658431142568588,0.04886921867728233,-0.06475171446800232
1679068271735462100,24.536462158203125,0.06719517707824707,0.04886921867728233,-0.06230825558304787
1679068271755481000,24.556481201171874,0.06780604273080826,0.04642575979232788,-0.06475171446800232
1679068271775501000,24.5765009765625,0.0659734457731247,0.045204028487205505,-0.06230825558304787
1679068271795459000,24.596458984375,0.06352998316287994,0.04703662544488907,-0.059864792972803116
1679068271815479000,24.61647900390625,0.0659734457731247,0.045204028487205505,-0.056810468435287476
1679068271835498000,24.636498046875,0.07024950534105301,0.05314527451992035,-0.06780604273080826
1679068271855396000,24.65639599609375,0.0659734457731247,0.0507018156349659,-0.060475658625364304
1679068271875476000,24.67647607421875,0.06719517707824707,0.05192354694008827,-0.06291911751031876
1679068271895496200,24.69649609375,0.06658431142568588,0.04886921867728233,-0.05803219974040985
1679068271915454000,24.716453857421875,0.06719517707824707,0.05192354694008827,-0.06230825558304787
1679068271936511000,24.737510986328125,0.06658431142568588,0.05742133408784866,-0.06780604273080826
1679068271956470000,24.757469970703124,0.0708603709936142,0.04337143152952194,-0.056810468435287476
1679068271976489000,24.777489013671875,0.0659734457731247,0.048258353024721146,-0.059864792972803116
1679068271996509200,24.79750927734375,0.0659734457731247,0.04703662544488907,-0.06291911751031876
1679068272017505000,24.818505126953124,0.06780604273080826,0.054367005825042725,-0.06352998316287994
1679068272038501000,24.839501220703124,0.06658431142568588,0.05253441259264946,-0.06291911751031876
1679068272058459100,24.859459228515625,0.06658431142568588,0.04948008432984352,-0.05925392732024193
1679068272078479000,24.87947900390625,0.06780604273080826,0.045204028487205505,-0.05742133408784866
1679068272098498000,24.899498046875,0.06475171446800232,0.04886921867728233,-0.06414084881544113
1679068272118457000,24.91945703125,0.06291911751031876,0.04581489413976669,-0.056810468435287476
1679068272139453200,24.940453125,0.06475171446800232,0.04948008432984352,-0.06108652427792549
1679068272160510000,24.961510009765625,0.06841690838336945,0.0507018156349659,-0.06475171446800232
1679068272181508000,24.982508056640626,0.06536258012056351,0.04886921867728233,-0.059864792972803116
