time,seconds_elapsed,z,y,x
1679068247375690000,0.17668994140625,9.66539192199707,-0.002394201699644327,0.12689268589019775
1679068247395458300,0.196458251953125,9.66539192199707,-0.002394201699644327,0.12689268589019775
1679068247415356400,0.2163564453125,9.703699111938477,-0.031124621629714966,0.11971008777618408
1679068247435497200,0.236497314453125,9.703699111938477,-0.028730420395731926,0.12689268589019775
1679068247455456300,0.256456298828125,9.694122314453125,-0.033518824726343155,0.14604631066322327
1679068247476452400,0.277452392578125,9.706093788146973,-0.040701430290937424,0.12449848651885986
1679068247496471300,0.29747119140625,9.708487510681152,-0.047884032130241394,0.15083470940589905
1679068247516388600,0.317388671875,9.703699111938477,-0.009576806798577309,0.12449848651885986
1679068247536407600,0.337407470703125,9.703699111938477,-0.047884032130241394,0.1364694982767105
1679068247556340200,0.35734033203125,9.6989107131958,-0.033518824726343155,0.1412578970193863
1679068247576359200,0.377359130859375,9.720458984375,-0.047884032130241394,0.15801730751991272
1679068247596379100,0.397379150390625,9.706093788146973,-0.047884032130241394,0.13407529890537262
1679068247616337200,0.417337158203125,9.696516990661621,-0.0454898327589035,0.1412578970193863
1679068247636357000,0.437357177734375,9.6989107131958,-0.035913024097681046,0.13407529890537262
1679068247656376300,0.457376220703125,9.706093788146973,-0.035913024097681046,0.1388636976480484
1679068247676335000,0.477335205078125,9.715670585632324,-0.038307227194309235,0.1173158809542656
1679068247696354300,0.497354248046875,9.710882186889648,-0.0454898327589035,0.12928688526153564
1679068247717350100,0.51835009765625,9.701305389404297,-0.0454898327589035,0.1149216815829277
1679068247737370000,0.5383701171875,9.703699111938477,-0.035913024097681046,0.13407529890537262
1679068247757328100,0.558328125,9.715670585632324,-0.019153613597154617,0.11971008777618408
1679068247777347300,0.578347412109375,9.701305389404297,-0.040701430290937424,0.1412578970193863
1679068247797367300,0.5983671875,9.710882186889648,-0.040701430290937424,0.12928688526153564
1679068247817325300,0.6183251953125,9.725247383117676,-0.035913024097681046,0.12689268589019775
1679068247837345300,0.63834521484375,9.701305389404297,-0.035913024097681046,0.1364694982767105
1679068247857364200,0.6583642578125,9.6989107131958,-0.0454898327589035,0.13168109953403473
1679068247878360300,0.6793603515625,9.703699111938477,-0.035913024097681046,0.13168109953403473
1679068247899356200,0.700356201171875,9.684545516967773,-0.040701430290937424,0.12928688526153564
1679068247919376100,0.720376220703125,9.710882186889648,-0.0454898327589035,0.13407529890537262
1679068247939334100,0.740334228515625,9.68694019317627,-0.033518824726343155,0.1364694982767105
1679068247960330200,0.761330322265625,9.713275909423828,-0.0454898327589035,0.12928688526153564
1679068247981326000,0.782326171875,9.6989107131958,-0.019153613597154617,0.1149216815829277
1679068248001346300,0.80234619140625,9.72285270690918,-0.047884032130241394,0.1412578970193863
1679068248021365200,0.822365234375,9.706093788146973,-0.040701430290937424,0.12689268589019775
1679068248042361000,0.843361083984375,9.674968719482422,-0.004788403399288654,0.1149216815829277
1679068248063357200,0.864357177734375,9.718064308166504,-0.047884032130241394,0.15322890877723694
1679068248083377200,0.884377197265625,9.706093788146973,-0.031124621629714966,0.12689268589019775
1679068248103335200,0.904335205078125,9.694122314453125,-0.038307227194309235,0.12689268589019775
1679068248124331300,0.925331298828125,9.708487510681152,-0.040701430290937424,0.15562310814857483
1679068248145327000,0.9463271484375,9.701305389404297,-0.040701430290937424,0.14365209639072418
1679068248165347300,0.966347412109375,9.703699111938477,-0.043095629662275314,0.1364694982767105
1679068248185369000,0.986369140625,9.691728591918945,-0.047884032130241394,0.13407529890537262
1679068248205266200,1.00626611328125,9.710882186889648,-0.033518824726343155,0.15083470940589905
1679068248225347300,1.026347412109375,9.706093788146973,-0.043095629662275314,0.13407529890537262
1679068248247381200,1.04838134765625,9.706093788146973,-0.043095629662275314,0.1412578970193863
1679068248267339300,1.06833935546875,9.703699111938477,-0.043095629662275314,0.12210428714752197
1679068248287358200,1.088358154296875,9.701305389404297,-0.040701430290937424,0.1388636976480484
1679068248307378200,1.108378173828125,9.703699111938477,-0.043095629662275314,0.12689268589019775
1679068248327336200,1.128336181640625,9.701305389404297,-0.035913024097681046,0.13168109953403473
1679068248347356200,1.148356201171875,9.6989107131958,-0.043095629662275314,0.12928688526153564
1679068248368352300,1.169352294921875,9.691728591918945,-0.002394201699644327,0.12689268589019775
1679068248388371200,1.18937109375,9.6989107131958,-0.05027823522686958,0.13407529890537262
1679068248409367300,1.2103671875,9.713275909423828,-0.023942016065120697,0.12928688526153564
1679068248429326000,1.230326171875,9.701305389404297,-0.047884032130241394,0.14365209639072418
1679068248449345300,1.25034521484375,9.720458984375,-0.035913024097681046,0.1364694982767105
1679068248469365200,1.270365234375,9.706093788146973,-0.0454898327589035,0.12689268589019775
1679068248490361000,1.291361083984375,9.691728591918945,0.002394201699644327,0.12689268589019775
1679068248511357200,1.312357177734375,9.713275909423828,-0.040701430290937424,0.14604631066322327
1679068248533330200,1.334330078125,9.6989107131958,-0.033518824726343155,0.11013327538967133
1679068248553349000,1.35434912109375,9.713275909423828,-0.043095629662275314,0.1412578970193863
1679068248574345200,1.37534521484375,9.706093788146973,-0.033518824726343155,0.12449848651885986
1679068248594365200,1.395365234375,9.696516990661621,-0.040701430290937424,0.13168109953403473
1679068248616337200,1.417337158203125,9.703699111938477,-0.0454898327589035,0.12689268589019775
1679068248636357000,1.437357177734375,9.696516990661621,-0.028730420395731926,0.13407529890537262
1679068248656376300,1.457376220703125,9.710882186889648,-0.026336219161748886,0.13407529890537262
1679068248676335000,1.477335205078125,9.701305389404297,-0.035913024097681046,0.1388636976480484
1679068248696354300,1.497354248046875,9.708487510681152,-0.038307227194309235,0.13407529890537262
1679068248716373200,1.517373291015625,9.706093788146973,-0.026336219161748886,0.12210428714752197
1679068248736332300,1.537332275390625,9.696516990661621,-0.040701430290937424,0.1388636976480484
1679068248756351200,1.557351318359375,9.703699111938477,-0.033518824726343155,0.1388636976480484
1679068248776371200,1.57737109375,9.718064308166504,-0.033518824726343155,0.13407529890537262
1679068248796146200,1.597146240234375,9.708487510681152,-0.035913024097681046,0.1364694982767105
1679068248816349200,1.61734912109375,9.718064308166504,-0.0454898327589035,0.15083470940589905
1679068248837345300,1.63834521484375,9.725247383117676,-0.0454898327589035,0.13168109953403473
1679068248857364200,1.6583642578125,9.725247383117676,-0.038307227194309235,0.1412578970193863
1679068248877323300,1.6783232421875,9.720458984375,-0.011971008032560349,0.1412578970193863
1679068248897342200,1.69834228515625,9.708487510681152,-0.0454898327589035,0.1388636976480484
1679068248917301200,1.71830126953125,9.713275909423828,-0.0454898327589035,0.14604631066322327
1679068248937381000,1.738381103515625,9.715670585632324,-0.031124621629714966,0.12210428714752197
1679068248957340200,1.758340087890625,9.710882186889648,-0.0454898327589035,0.1149216815829277
1679068248977359000,1.778359130859375,9.682151794433594,-0.031124621629714966,0.12449848651885986
1679068248997379300,1.79837939453125,9.708487510681152,-0.047884032130241394,0.1412578970193863
1679068249018192100,1.819192138671875,9.713275909423828,-0.043095629662275314,0.14604631066322327
1679068249038333200,1.839333251953125,9.720458984375,-0.0454898327589035,0.1412578970193863
1679068249058353200,1.859353271484375,9.718064308166504,-0.043095629662275314,0.12689268589019775
1679068249078372000,1.8793720703125,9.715670585632324,-0.047884032130241394,0.14604631066322327
1679068249098331100,1.8993310546875,9.725247383117676,-0.043095629662275314,0.1604115068912506
1679068249118350000,1.91935009765625,9.708487510681152,-0.043095629662275314,0.12449848651885986
1679068249139346200,1.94034619140625,9.715670585632324,-0.035913024097681046,0.13407529890537262
1679068249159366100,1.9603662109375,9.706093788146973,-0.019153613597154617,0.13407529890537262
1679068249179265300,1.980265380859375,9.691728591918945,-0.0454898327589035,0.1388636976480484
1679068249199346200,2.00034619140625,9.734824180603027,-0.019153613597154617,0.12689268589019775
1679068249219365000,2.020365234375,9.696516990661621,-0.047884032130241394,0.13407529890537262
1679068249239324200,2.04032421875,9.684545516967773,-0.023942016065120697,0.1412578970193863
1679068249260381200,2.061381103515625,9.713275909423828,-0.035913024097681046,0.12689268589019775
1679068249280339200,2.081339111328125,9.710882186889648,-0.035913024097681046,0.14604631066322327
1679068249300359200,2.101359130859375,9.727641105651855,-0.028730420395731926,0.12210428714752197
1679068249321172200,2.122172119140625,9.708487510681152,-0.040701430290937424,0.11971008777618408
1679068249342351000,2.14335107421875,9.703699111938477,-0.043095629662275314,0.12449848651885986
1679068249362370300,2.163370361328125,9.708487510681152,-0.040701430290937424,0.12449848651885986
1679068249382329000,2.1833291015625,9.708487510681152,-0.043095629662275314,0.15083470940589905
1679068249402348300,2.203348388671875,9.720458984375,-0.043095629662275314,0.14365209639072418
1679068249422368300,2.2233681640625,9.725247383117676,-0.040701430290937424,0.1364694982767105
1679068249442326300,2.243326171875,9.72285270690918,-0.0454898327589035,0.1412578970193863
1679068249462346200,2.26334619140625,9.706093788146973,-0.014365210197865963,0.12928688526153564
1679068249482365200,2.283365234375,9.701305389404297,-0.040701430290937424,0.13407529890537262
1679068249502324200,2.30332421875,9.718064308166504,-0.033518824726343155,0.1412578970193863
1679068249522343200,2.32334326171875,9.684545516967773,-0.033518824726343155,0.12689268589019775
1679068249542302200,2.34330224609375,9.715670585632324,-0.031124621629714966,0.13168109953403473
1679068249562382000,2.363382080078125,9.718064308166504,-0.031124621629714966,0.1388636976480484
1679068249582341000,2.383341064453125,9.706093788146973,-0.047884032130241394,0.15562310814857483
1679068249603337200,2.404337158203125,9.720458984375,-0.023942016065120697,0.1388636976480484
1679068249623356200,2.424356201171875,9.715670585632324,-0.043095629662275314,0.1149216815829277
1679068249643376000,2.444376220703125,9.701305389404297,-0.043095629662275314,0.1412578970193863
1679068249663334100,2.464334228515625,9.718064308166504,-0.047884032130241394,0.14365209639072418
1679068249683354000,2.48435400390625,9.710882186889648,-0.038307227194309235,0.11971008777618408
1679068249704350200,2.50535009765625,9.715670585632324,-0.040701430290937424,0.14844051003456116
1679068249724308200,2.52530810546875,9.6989107131958,-0.0454898327589035,0.13407529890537262
1679068249745365200,2.546365234375,9.710882186889648,-0.035913024097681046,0.12449848651885986
1679068249765324300,2.56632421875,9.706093788146973,-0.035913024097681046,0.14365209639072418
1679068249785343200,2.58634326171875,9.713275909423828,-0.026336219161748886,0.13407529890537262
1679068249805363200,2.60636328125,9.710882186889648,-0.047884032130241394,0.1412578970193863
1679068249825382100,2.626382080078125,9.701305389404297,-0.043095629662275314,0.13407529890537262
1679068249845340200,2.646340087890625,9.696516990661621,-0.035913024097681046,0.12928688526153564
1679068249865360100,2.666360107421875,9.710882186889648,-0.028730420395731926,0.12210428714752197
1679068249885379300,2.68637939453125,9.710882186889648,-0.043095629662275314,0.13407529890537262
1679068249905338000,2.706338134765625,9.701305389404297,-0.047884032130241394,0.14365209639072418
1679068249925357300,2.726357421875,9.708487510681152,-0.033518824726343155,0.12689268589019775
1679068249945377300,2.746377197265625,9.710882186889648,-0.038307227194309235,0.13407529890537262
1679068249965335300,2.766335205078125,9.701305389404297,-0.031124621629714966,0.12210428714752197
1679068249986331100,2.7873310546875,9.677363395690918,-0.033518824726343155,0.1388636976480484
1679068250006351000,2.80735107421875,9.720458984375,-0.026336219161748886,0.09576806426048279
1679068250026370300,2.827370361328125,9.696516990661621,-0.014365210197865963,0.1173158809542656
1679068250047366100,2.8483662109375,9.703699111938477,-0.043095629662275314,0.13168109953403473
1679068250067325200,2.8683251953125,9.708487510681152,-0.047884032130241394,0.15083470940589905
1679068250087344000,2.88834423828125,9.6989107131958,-0.035913024097681046,0.12210428714752197
1679068250107364000,2.908364013671875,9.703699111938477,-0.047884032130241394,0.13407529890537262
1679068250127322000,2.928322021484375,9.710882186889648,-0.035913024097681046,0.1412578970193863
1679068250147342000,2.948342041015625,9.706093788146973,-0.038307227194309235,0.12689268589019775
1679068250167361300,2.968361328125,9.718064308166504,-0.035913024097681046,0.1364694982767105
1679068250187322000,2.988322021484375,9.701305389404297,-0.047884032130241394,0.15801730751991272
1679068250207342000,3.008342041015625,9.691728591918945,-0.028730420395731926,0.13407529890537262
1679068250227361300,3.028361328125,9.701305389404297,-0.028730420395731926,0.1388636976480484
1679068250247381200,3.04838134765625,9.68933391571045,-0.028730420395731926,0.12210428714752197
1679068250268377000,3.069377197265625,9.694122314453125,-0.016759412363171577,0.12210428714752197
1679068250288335000,3.089335205078125,9.703699111938477,-0.038307227194309235,0.14604631066322327
1679068250309331200,3.110331298828125,9.696516990661621,-0.019153613597154617,0.13168109953403473
1679068250329351200,3.13035107421875,9.6989107131958,-0.038307227194309235,0.1364694982767105
1679068250349370000,3.1503701171875,9.68933391571045,-0.023942016065120697,0.12449848651885986
1679068250369328000,3.170328125,9.679757118225098,-0.031124621629714966,0.12449848651885986
1679068250389348000,3.19034814453125,9.691728591918945,-0.028730420395731926,0.11971008777618408
1679068250409367300,3.2103671875,9.6989107131958,-0.033518824726343155,0.12449848651885986
1679068250429326000,3.230326171875,9.708487510681152,-0.026336219161748886,0.12210428714752197
1679068250449345300,3.25034521484375,9.701305389404297,-0.043095629662275314,0.14365209639072418
1679068250469365200,3.270365234375,9.68694019317627,-0.033518824726343155,0.13168109953403473
1679068250489262000,3.290261962890625,9.701305389404297,-0.035913024097681046,0.13168109953403473
1679068250510380300,3.31138037109375,9.701305389404297,-0.043095629662275314,0.1388636976480484
1679068250530339300,3.33133935546875,9.706093788146973,-0.047884032130241394,0.14604631066322327
1679068250550358300,3.351358154296875,9.68933391571045,-0.0071826050989329815,0.12928688526153564
1679068250570378200,3.371378173828125,9.691728591918945,-0.038307227194309235,0.1412578970193863
1679068250590336300,3.391336181640625,9.6989107131958,-0.019153613597154617,0.11971008777618408
1679068250610356200,3.411356201171875,9.701305389404297,-0.035913024097681046,0.13168109953403473
1679068250631352300,3.432352294921875,9.696516990661621,-0.026336219161748886,0.14365209639072418
1679068250651371300,3.452371337890625,9.672574996948242,-0.016759412363171577,0.12689268589019775
1679068250671147300,3.472147216796875,9.691728591918945,-0.011971008032560349,0.12689268589019775
1679068250691349200,3.492349365234375,9.674968719482422,-0.009576806798577309,0.11971008777618408
1679068250711369200,3.512369140625,9.694122314453125,-0.031124621629714966,0.1412578970193863
1679068250731266300,3.532266357421875,9.679757118225098,-0.011971008032560349,0.12928688526153564
1679068250752323300,3.5533232421875,9.725247383117676,-0.043095629662275314,0.1149216815829277
1679068250772343300,3.57334326171875,9.701305389404297,-0.026336219161748886,0.1173158809542656
1679068250792301300,3.59330126953125,9.6989107131958,-0.019153613597154617,0.11971008777618408
1679068250812382200,3.61338232421875,9.708487510681152,-0.028730420395731926,0.12449848651885986
1679068250832340200,3.63334033203125,9.694122314453125,-0.021547814831137657,0.12928688526153564
1679068250852359200,3.653359130859375,9.713275909423828,-0.040701430290937424,0.15562310814857483
1679068250873355300,3.674355224609375,9.708487510681152,-0.047884032130241394,0.1412578970193863
1679068250894352100,3.69535205078125,9.694122314453125,-0.014365210197865963,0.11971008777618408
1679068250914371300,3.715371337890625,9.694122314453125,-0.035913024097681046,0.13407529890537262
1679068250934329000,3.7353291015625,9.68933391571045,-0.019153613597154617,0.12689268589019775
1679068250954349300,3.755349365234375,9.720458984375,-0.026336219161748886,0.1173158809542656
1679068250974368300,3.7753681640625,9.68694019317627,-0.009576806798577309,0.12210428714752197
1679068250997239800,3.79823974609375,9.6989107131958,-0.031124621629714966,0.12449848651885986
1679068251034808600,3.83580859375,9.684545516967773,-0.026336219161748886,0.12449848651885986
1679068251054588200,3.855588134765625,9.691728591918945,-0.031124621629714966,0.14365209639072418
1679068251074608000,3.875608154296875,9.68933391571045,-0.009576806798577309,0.1388636976480484
1679068251094567000,3.89556689453125,9.679757118225098,-0.019153613597154617,0.13168109953403473
1679068251114526000,3.91552587890625,9.696516990661621,-0.035913024097681046,0.11971008777618408
1679068251134545000,3.935544921875,9.679757118225098,-0.009576806798577309,0.12449848651885986
1679068251154564900,3.95556494140625,9.691728591918945,-0.023942016065120697,0.10773907601833344
1679068251174526000,3.97552587890625,9.679757118225098,-0.019153613597154617,0.11013327538967133
1679068251194545000,3.995544921875,9.691728591918945,-0.002394201699644327,0.12210428714752197
1679068251214564900,4.01556494140625,9.684545516967773,-0.021547814831137657,0.12689268589019775
1679068251234583800,4.035583740234375,9.684545516967773,-0.016759412363171577,0.12210428714752197
1679068251254542800,4.05554296875,9.682151794433594,0.002394201699644327,0.12689268589019775
1679068251274561800,4.075561767578125,9.684545516967773,-0.023942016065120697,0.13407529890537262
1679068251296534800,4.09753466796875,9.677363395690918,-0.014365210197865963,0.11971008777618408
1679068251317531000,4.11853076171875,9.670180320739746,-0.021547814831137657,0.12928688526153564
1679068251337549800,4.1385498046875,9.68933391571045,-0.038307227194309235,0.13407529890537262
1679068251358546000,4.1595458984375,9.672574996948242,-0.004788403399288654,0.13407529890537262
1679068251378505000,4.1795048828125,9.694122314453125,0.009576806798577309,0.15322890877723694
1679068251398524000,4.19952392578125,9.684545516967773,-0.016759412363171577,0.12449848651885986
1679068251420557800,4.221557861328125,9.694122314453125,-0.016759412363171577,0.12210428714752197
1679068251440515800,4.241515869140625,9.68694019317627,-0.016759412363171577,0.1412578970193863
1679068251460535800,4.261535888671875,9.694122314453125,-0.023942016065120697,0.1173158809542656
1679068251480555000,4.281554931640625,9.677363395690918,-0.011971008032560349,0.12928688526153564
1679068251501550800,4.30255078125,9.68933391571045,0.0071826050989329815,0.1364694982767105
1679068251522547000,4.323546875,9.682151794433594,-0.009576806798577309,0.1412578970193863
1679068251543542800,4.344542724609375,9.68933391571045,-0.014365210197865963,0.11971008777618408
1679068251563563000,4.36456298828125,9.679757118225098,-0.0071826050989329815,0.11971008777618408
1679068251583582000,4.38458203125,9.684545516967773,-0.0071826050989329815,0.1364694982767105
1679068251604577800,4.405577880859375,9.691728591918945,-0.004788403399288654,0.13407529890537262
1679068251625574000,4.426573974609375,9.684545516967773,-0.026336219161748886,0.13407529890537262
1679068251645533000,4.446532958984375,9.701305389404297,-0.026336219161748886,0.1364694982767105
1679068251665552000,4.4665517578125,9.674968719482422,-0.014365210197865963,0.12449848651885986
1679068251685571800,4.48657177734375,9.691728591918945,-0.023942016065120697,0.1388636976480484
1679068251705529900,4.50652978515625,9.701305389404297,-0.026336219161748886,0.12689268589019775
1679068251725549800,4.5265498046875,9.677363395690918,-0.016759412363171577,0.1173158809542656
1679068251745569000,4.546569091796875,9.696516990661621,-0.028730420395731926,0.1412578970193863
1679068251765527800,4.56652783203125,9.672574996948242,-0.033518824726343155,0.13168109953403473
1679068251785364000,4.586364013671875,9.701305389404297,-0.031124621629714966,0.12689268589019775
1679068251805567000,4.60656689453125,9.682151794433594,-0.011971008032560349,0.13168109953403473
1679068251825586000,4.6265859375,9.684545516967773,-0.009576806798577309,0.14365209639072418
1679068251845544000,4.6465439453125,9.677363395690918,0,0.14844051003456116
1679068251865564000,4.66656396484375,9.691728591918945,-0.0454898327589035,0.1149216815829277
1679068251885582800,4.686582763671875,9.684545516967773,-0.0071826050989329815,0.13407529890537262
1679068251905542000,4.7065419921875,9.68933391571045,-0.021547814831137657,0.12210428714752197
1679068251925560800,4.726560791015625,9.691728591918945,0,0.1388636976480484
1679068251945580800,4.746580810546875,9.691728591918945,-0.0454898327589035,0.12210428714752197
1679068251965538800,4.766538818359375,9.679757118225098,-0.009576806798577309,0.1388636976480484
1679068251985558800,4.786558837890625,9.674968719482422,-0.026336219161748886,0.12210428714752197
1679068252005578000,4.806577880859375,9.703699111938477,-0.040701430290937424,0.11971008777618408
1679068252025475800,4.826475830078125,9.684545516967773,-0.014365210197865963,0.1388636976480484
1679068252045556000,4.846555908203125,9.68933391571045,-0.031124621629714966,0.12928688526153564
1679068252065515000,4.866514892578125,9.682151794433594,-0.011971008032560349,0.12928688526153564
1679068252086571800,4.88757177734375,9.696516990661621,-0.0071826050989329815,0.12928688526153564
1679068252106529800,4.90752978515625,9.658209800720215,-0.026336219161748886,0.13407529890537262
1679068252126550000,4.927550048828125,9.672574996948242,-0.019153613597154617,0.12928688526153564
1679068252146569000,4.94756884765625,9.68933391571045,-0.031124621629714966,0.12928688526153564
1679068252166501600,4.967501708984375,9.68694019317627,-0.004788403399288654,0.11971008777618408
1679068252186524700,4.987524658203125,9.691728591918945,-0.035913024097681046,0.1364694982767105
1679068252206543600,5.007543701171875,9.684545516967773,-0.019153613597154617,0.1173158809542656
1679068252227539700,5.028539794921875,9.677363395690918,-0.011971008032560349,0.13407529890537262
1679068252247526700,5.048526611328125,9.682151794433594,-0.014365210197865963,0.13168109953403473
1679068252267423700,5.068423828125,9.691728591918945,-0.038307227194309235,0.12210428714752197
1679068252287503600,5.088503662109375,9.677363395690918,0.009576806798577309,0.1388636976480484
1679068252307523600,5.108523681640625,9.68694019317627,-0.016759412363171577,0.12689268589019775
1679068252327481600,5.128481689453125,9.670180320739746,-0.014365210197865963,0.12689268589019775
1679068252347501600,5.14850146484375,9.696516990661621,-0.040701430290937424,0.12210428714752197
1679068252367520800,5.168520751953125,9.68694019317627,-0.033518824726343155,0.1388636976480484
1679068252387479600,5.1884794921875,9.68933391571045,0.0071826050989329815,0.1364694982767105
1679068252407498800,5.208498779296875,9.701305389404297,-0.033518824726343155,0.12689268589019775
1679068252427518700,5.228518798828125,9.68694019317627,0.004788403399288654,0.14604631066322327
1679068252447476700,5.248476806640625,9.694122314453125,-0.009576806798577309,0.13168109953403473
1679068252467496700,5.26849658203125,9.682151794433594,-0.014365210197865963,0.1364694982767105
1679068252487515600,5.288515625,9.708487510681152,-0.035913024097681046,0.11252748221158981
1679068252507474700,5.308474609375,9.6989107131958,-0.026336219161748886,0.13168109953403473
1679068252527493600,5.32849365234375,9.696516990661621,-0.0071826050989329815,0.14365209639072418
1679068252547513600,5.348513671875,9.667786598205566,-0.009576806798577309,0.13407529890537262
1679068252567471600,5.3684716796875,9.691728591918945,-0.011971008032560349,0.12449848651885986
1679068252587490600,5.388490478515625,9.677363395690918,-0.002394201699644327,0.13168109953403473
1679068252607510800,5.4085107421875,9.682151794433594,-0.004788403399288654,0.1173158809542656
1679068252628506600,5.429506591796875,9.674968719482422,-0.033518824726343155,0.12928688526153564
1679068252648525600,5.449525634765625,9.682151794433594,-0.023942016065120697,0.13407529890537262
1679068252668484600,5.469484619140625,9.672574996948242,-0.014365210197865963,0.1388636976480484
1679068252688503600,5.489503662109375,9.684545516967773,-0.009576806798577309,0.13168109953403473
1679068252708523800,5.509523681640625,9.694122314453125,-0.033518824726343155,0.12928688526153564
1679068252728420600,5.529420654296875,9.684545516967773,-0.019153613597154617,0.1412578970193863
1679068252748501800,5.549501708984375,9.706093788146973,-0.026336219161748886,0.12210428714752197
1679068252768520700,5.569520751953125,9.6989107131958,-0.023942016065120697,0.14844051003456116
1679068252788479700,5.589479736328125,9.701305389404297,-0.011971008032560349,0.1388636976480484
1679068252808498700,5.609498779296875,9.694122314453125,-0.026336219161748886,0.12689268589019775
1679068252828518700,5.6295185546875,9.679757118225098,-0.011971008032560349,0.12928688526153564
1679068252848476700,5.6494765625,9.674968719482422,0.014365210197865963,0.13168109953403473
1679068252868496600,5.66949658203125,9.677363395690918,-0.0071826050989329815,0.13168109953403473
1679068252888515600,5.689515625,9.710882186889648,-0.040701430290937424,0.14844051003456116
1679068252908474600,5.709474609375,9.684545516967773,0,0.12928688526153564
1679068252929470700,5.730470703125,9.694122314453125,-0.040701430290937424,0.12689268589019775
1679068252950527700,5.75152783203125,9.706093788146973,-0.016759412363171577,0.1173158809542656
1679068252970485800,5.77148583984375,9.682151794433594,-0.016759412363171577,0.12689268589019775
1679068252990505700,5.791505615234375,9.682151794433594,-0.004788403399288654,0.13168109953403473
1679068253010524700,5.811524658203125,9.696516990661621,-0.028730420395731926,0.14365209639072418
1679068253030483700,5.831483642578125,9.679757118225098,-0.002394201699644327,0.1388636976480484
1679068253050502700,5.851502685546875,9.674968719482422,-0.028730420395731926,0.13168109953403473
1679068253070521600,5.871521484375,9.68933391571045,-0.021547814831137657,0.12928688526153564
1679068253090480600,5.891480712890625,9.670180320739746,-0.021547814831137657,0.14604631066322327
1679068253110499600,5.91149951171875,9.682151794433594,-0.023942016065120697,0.12449848651885986
1679068253131495700,5.93249560546875,9.694122314453125,-0.011971008032560349,0.14844051003456116
1679068253151515600,5.952515625,9.674968719482422,-0.021547814831137657,0.12689268589019775
1679068253171473700,5.9724736328125,9.694122314453125,-0.014365210197865963,0.13407529890537262
1679068253191495700,5.99249560546875,9.677363395690918,0,0.12449848651885986
1679068253212491800,6.01349169921875,9.694122314453125,-0.019153613597154617,0.1149216815829277
1679068253232511700,6.03351171875,9.691728591918945,-0.021547814831137657,0.11971008777618408
1679068253252469800,6.0534697265625,9.667786598205566,-0.009576806798577309,0.12449848651885986
1679068253272306700,6.073306640625,9.682151794433594,-0.016759412363171577,0.1364694982767105
1679068253292508700,6.0935087890625,9.670180320739746,-0.011971008032560349,0.1173158809542656
1679068253312284700,6.11328466796875,9.674968719482422,-0.014365210197865963,0.1149216815829277
1679068253332486700,6.133486572265625,9.684545516967773,-0.002394201699644327,0.12449848651885986
1679068253352506600,6.153506591796875,9.682151794433594,-0.014365210197865963,0.1364694982767105
1679068253373502700,6.174502685546875,9.682151794433594,-0.004788403399288654,0.1388636976480484
1679068253393521700,6.194521728515625,9.6989107131958,-0.031124621629714966,0.14365209639072418
1679068253414517800,6.215517822265625,9.691728591918945,-0.038307227194309235,0.12689268589019775
1679068253434476500,6.2354765625,9.694122314453125,-0.028730420395731926,0.12449848651885986
1679068253454495700,6.255495849609375,9.710882186889648,-0.033518824726343155,0.11013327538967133
1679068253475491600,6.27649169921875,9.68933391571045,-0.031124621629714966,0.12928688526153564
1679068253495511600,6.296511474609375,9.713275909423828,-0.026336219161748886,0.1364694982767105
1679068253515469600,6.316469482421875,9.68933391571045,-0.004788403399288654,0.1388636976480484
1679068253535489800,6.33648974609375,9.710882186889648,-0.031124621629714966,0.13168109953403473
1679068253556485600,6.357485595703125,9.679757118225098,-0.0071826050989329815,0.14604631066322327
1679068253576504600,6.377504638671875,9.691728591918945,-0.019153613597154617,0.1364694982767105
1679068253596524500,6.397524658203125,9.68933391571045,-0.009576806798577309,0.11971008777618408
1679068253616482600,6.417482666015625,9.6989107131958,-0.043095629662275314,0.12689268589019775
1679068253636502800,6.437502685546875,9.708487510681152,-0.043095629662275314,0.1388636976480484
1679068253656521700,6.457521728515625,9.706093788146973,-0.0454898327589035,0.14844051003456116
1679068253676480800,6.477480712890625,9.694122314453125,-0.021547814831137657,0.12449848651885986
1679068253696499700,6.497499755859375,9.670180320739746,-0.023942016065120697,0.12689268589019775
1679068253716518700,6.5175185546875,9.6989107131958,-0.035913024097681046,0.12928688526153564
1679068253736477700,6.537477783203125,9.703699111938477,-0.035913024097681046,0.13168109953403473
1679068253757473800,6.558473876953125,9.691728591918945,-0.014365210197865963,0.12928688526153564
1679068253777492700,6.57849267578125,9.713275909423828,-0.047884032130241394,0.14844051003456116
1679068253798488600,6.599488525390625,9.703699111938477,-0.021547814831137657,0.12689268589019775
1679068253819485700,6.620485595703125,9.713275909423828,-0.047884032130241394,0.13407529890537262
1679068253839504600,6.640504638671875,9.696516990661621,-0.043095629662275314,0.13407529890537262
1679068253859523600,6.660523681640625,9.691728591918945,-0.016759412363171577,0.1149216815829277
1679068253879482600,6.680482666015625,9.715670585632324,-0.026336219161748886,0.10773907601833344
1679068253900478700,6.701478759765625,9.6989107131958,0.002394201699644327,0.12449848651885986
1679068253920497700,6.72149755859375,9.6989107131958,-0.028730420395731926,0.12210428714752197
1679068253940517600,6.741517578125,9.6989107131958,-0.047884032130241394,0.12928688526153564
1679068253960475600,6.7614755859375,9.682151794433594,-0.019153613597154617,0.12210428714752197
1679068253981471700,6.7824716796875,9.710882186889648,-0.05027823522686958,0.14365209639072418
1679068254001491700,6.80249169921875,9.696516990661621,-0.040701430290937424,0.14365209639072418
1679068254023525600,6.824525634765625,9.696516990661621,-0.021547814831137657,0.13407529890537262
1679068254044521700,6.845521728515625,9.727641105651855,-0.021547814831137657,0.10534487664699554
1679068254064479700,6.865479736328125,9.701305389404297,-0.016759412363171577,0.1149216815829277
1679068254084498700,6.885498779296875,9.708487510681152,-0.038307227194309235,0.13407529890537262
1679068254104518700,6.9055185546875,9.696516990661621,-0.021547814831137657,0.11252748221158981
1679068254124476700,6.9254765625,9.708487510681152,-0.047884032130241394,0.13168109953403473
1679068254144478500,6.945478515625,9.696516990661621,-0.011971008032560349,0.12928688526153564
1679068254164401000,6.96540087890625,9.701305389404297,-0.031124621629714966,0.1364694982767105
1679068254184362000,6.985362060546875,9.6989107131958,-0.016759412363171577,0.12689268589019775
1679068254204321000,7.005321044921875,9.706093788146973,-0.026336219161748886,0.12210428714752197
1679068254224401000,7.02540087890625,9.715670585632324,-0.028730420395731926,0.13407529890537262
1679068254244360000,7.04535986328125,9.701305389404297,0.004788403399288654,0.14365209639072418
1679068254264379000,7.06537890625,9.703699111938477,-0.033518824726343155,0.14604631066322327
1679068254284398800,7.08539892578125,9.706093788146973,-0.047884032130241394,0.1364694982767105
1679068254304356900,7.10535693359375,9.703699111938477,-0.040701430290937424,0.1412578970193863
1679068254324316000,7.12531591796875,9.6989107131958,-0.035913024097681046,0.13407529890537262
1679068254345373000,7.146373046875,9.706093788146973,-0.043095629662275314,0.12689268589019775
1679068254365392000,7.166391845703125,9.713275909423828,-0.047884032130241394,0.1388636976480484
1679068254385411800,7.186411865234375,9.708487510681152,-0.023942016065120697,0.15083470940589905
1679068254405369900,7.206369873046875,9.701305389404297,-0.028730420395731926,0.12449848651885986
1679068254425389800,7.226389892578125,9.706093788146973,-0.038307227194309235,0.1149216815829277
1679068254445409000,7.246408935546875,9.701305389404297,-0.019153613597154617,0.11252748221158981
1679068254465367800,7.266367919921875,9.68694019317627,-0.021547814831137657,0.12928688526153564
1679068254485387000,7.286386962890625,9.718064308166504,-0.019153613597154617,0.13168109953403473
1679068254505406000,7.306406005859375,9.727641105651855,-0.047884032130241394,0.15322890877723694
1679068254525365000,7.326364990234375,9.715670585632324,-0.047884032130241394,0.1388636976480484
1679068254545323000,7.346322998046875,9.703699111938477,-0.0454898327589035,0.1388636976480484
1679068254565404000,7.36640380859375,9.701305389404297,-0.031124621629714966,0.12449848651885986
1679068254585362000,7.38636181640625,9.6989107131958,-0.023942016065120697,0.13168109953403473
1679068254605382000,7.4063818359375,9.701305389404297,-0.040701430290937424,0.12689268589019775
1679068254626195000,7.42719482421875,9.6989107131958,-0.021547814831137657,0.1173158809542656
1679068254646397000,7.44739697265625,9.701305389404297,-0.019153613597154617,0.1149216815829277
1679068254666356000,7.46735595703125,9.691728591918945,-0.0454898327589035,0.1388636976480484
1679068254686375000,7.487375,9.713275909423828,-0.040701430290937424,0.1364694982767105
1679068254706395000,7.507394775390625,9.68933391571045,-0.023942016065120697,0.12689268589019775
1679068254726353000,7.527352783203125,9.691728591918945,-0.040701430290937424,0.1412578970193863
1679068254746372900,7.547372802734375,9.701305389404297,-0.047884032130241394,0.15083470940589905
1679068254766331000,7.567330810546875,9.701305389404297,-0.047884032130241394,0.14844051003456116
1679068254786412000,7.587412109375,9.718064308166504,-0.047884032130241394,0.1364694982767105
1679068254806370000,7.6073701171875,9.703699111938477,-0.040701430290937424,0.13168109953403473
1679068254826390000,7.62739013671875,9.701305389404297,-0.047884032130241394,0.14604631066322327
1679068254847385900,7.6483857421875,9.710882186889648,-0.047884032130241394,0.1388636976480484
1679068254867405000,7.668405029296875,9.706093788146973,-0.016759412363171577,0.1412578970193863
1679068254887363800,7.68836376953125,9.696516990661621,-0.028730420395731926,0.12689268589019775
1679068254907383000,7.708383056640625,9.701305389404297,-0.040701430290937424,0.14844051003456116
1679068254928379000,7.72937890625,9.696516990661621,-0.047884032130241394,0.13168109953403473
1679068254949375000,7.750375,9.68933391571045,-0.031124621629714966,0.13407529890537262
1679068254969395000,7.77039501953125,9.703699111938477,-0.035913024097681046,0.13168109953403473
1679068254989353000,7.79035302734375,9.68694019317627,-0.023942016065120697,0.13168109953403473
1679068255009372000,7.810371826171875,9.691728591918945,-0.031124621629714966,0.12449848651885986
1679068255029392000,7.830391845703125,9.6989107131958,0,0.14604631066322327
1679068255049410800,7.850410888671875,9.684545516967773,-0.016759412363171577,0.12689268589019775
1679068255069369900,7.870369873046875,9.6989107131958,-0.0454898327589035,0.1364694982767105
1679068255089389000,7.89038916015625,9.694122314453125,-0.031124621629714966,0.1364694982767105
1679068255109409000,7.910408935546875,9.703699111938477,-0.038307227194309235,0.12210428714752197
1679068255129367000,7.930366943359375,9.684545516967773,-0.028730420395731926,0.1412578970193863
1679068255149387000,7.950386962890625,9.710882186889648,-0.033518824726343155,0.13407529890537262
1679068255170382800,7.9713828125,9.6989107131958,-0.035913024097681046,0.1412578970193863
1679068255191381000,7.992381103515625,9.694122314453125,-0.040701430290937424,0.14844051003456116
1679068255211401000,8.01240087890625,9.691728591918945,-0.011971008032560349,0.12928688526153564
1679068255231359000,8.03235888671875,9.684545516967773,-0.0071826050989329815,0.1364694982767105
1679068255253393000,8.054392822265624,9.684545516967773,-0.023942016065120697,0.1173158809542656
1679068255273411800,8.074411865234374,9.68694019317627,-0.004788403399288654,0.1388636976480484
1679068255294408000,8.095407958984374,9.703699111938477,-0.0454898327589035,0.1412578970193863
1679068255315405000,8.116405029296875,9.677363395690918,-0.009576806798577309,0.12210428714752197
1679068255336401000,8.13740087890625,9.696516990661621,-0.043095629662275314,0.15801730751991272
1679068255356359000,8.15735888671875,9.706093788146973,-0.0071826050989329815,0.12689268589019775
1679068255376377900,8.1773779296875,9.684545516967773,-0.031124621629714966,0.11971008777618408
1679068255396397800,8.197397705078124,9.703699111938477,-0.023942016065120697,0.11971008777618408
1679068255416355800,8.21735595703125,9.674968719482422,0.011971008032560349,0.13168109953403473
1679068255437412900,8.238412841796874,9.703699111938477,-0.026336219161748886,0.10773907601833344
1679068255457372000,8.258371826171874,9.674968719482422,-0.009576806798577309,0.12928688526153564
1679068255477269000,8.27826904296875,9.708487510681152,-0.047884032130241394,0.14365209639072418
1679068255497410800,8.298410888671874,9.68933391571045,-0.019153613597154617,0.12449848651885986
1679068255517247000,8.3182470703125,9.701305389404297,0.009576806798577309,0.1364694982767105
1679068255537117000,8.338116943359376,9.691728591918945,-0.040701430290937424,0.12928688526153564
1679068255557136000,8.358135986328126,9.6989107131958,-0.019153613597154617,0.1412578970193863
1679068255577794000,8.3787939453125,9.694122314453125,-0.035913024097681046,0.13168109953403473
1679068255606659000,8.4076591796875,9.696516990661621,-0.031124621629714966,0.13407529890537262
1679068255626552800,8.427552734375,9.684545516967773,-0.031124621629714966,0.1173158809542656
1679068255646546000,8.4475458984375,9.684545516967773,-0.035913024097681046,0.1364694982767105
1679068255667541800,8.468541748046874,9.684545516967773,-0.043095629662275314,0.14365209639072418
1679068255687560700,8.488560791015624,9.703699111938477,-0.047884032130241394,0.1364694982767105
1679068255707581000,8.508580810546874,9.682151794433594,-0.021547814831137657,0.12449848651885986
1679068255727538700,8.52853857421875,9.701305389404297,-0.040701430290937424,0.11252748221158981
1679068255747559000,8.548558837890624,9.696516990661621,-0.019153613597154617,0.1149216815829277
1679068255768554800,8.5695546875,9.694122314453125,-0.026336219161748886,0.13168109953403473
1679068255788573700,8.58957373046875,9.677363395690918,-0.033518824726343155,0.12210428714752197
1679068255808532700,8.60953271484375,9.701305389404297,-0.047884032130241394,0.12689268589019775
1679068255828552000,8.629552001953124,9.68694019317627,-0.002394201699644327,0.13407529890537262
1679068255848572000,8.649572021484374,9.701305389404297,-0.031124621629714966,0.12449848651885986
1679068255868530000,8.669530029296874,9.68694019317627,-0.0071826050989329815,0.13407529890537262
1679068255888550000,8.6895498046875,9.68933391571045,-0.014365210197865963,0.14844051003456116
1679068255908568800,8.70956884765625,9.68933391571045,-0.043095629662275314,0.12689268589019775
1679068255928528000,8.72952783203125,9.715670585632324,-0.023942016065120697,0.12689268589019775
1679068255948546800,8.749546875,9.670180320739746,-0.004788403399288654,0.13168109953403473
1679068255969543000,8.77054296875,9.68694019317627,-0.023942016065120697,0.12210428714752197
1679068255989563000,8.79056298828125,9.68694019317627,-0.038307227194309235,0.12689268589019775
1679068256009521000,8.81052099609375,9.703699111938477,-0.035913024097681046,0.1149216815829277
1679068256029540900,8.830540771484374,9.691728591918945,-0.014365210197865963,0.12689268589019775
1679068256049559800,8.850559814453124,9.674968719482422,-0.0071826050989329815,0.1412578970193863
1679068256069578800,8.870578857421876,9.68694019317627,-0.011971008032560349,0.12210428714752197
1679068256089537800,8.890537841796874,9.682151794433594,-0.033518824726343155,0.13407529890537262
1679068256109556700,8.910556640625,9.674968719482422,-0.016759412363171577,0.13407529890537262
1679068256130552800,8.931552734375,9.679757118225098,-0.019153613597154617,0.13407529890537262
1679068256150572800,8.95157275390625,9.68933391571045,-0.014365210197865963,0.13407529890537262
1679068256170530800,8.97153076171875,9.682151794433594,-0.028730420395731926,0.13407529890537262
1679068256190552800,8.991552734375,9.694122314453125,-0.0071826050989329815,0.12928688526153564
1679068256210572800,9.01157275390625,9.679757118225098,-0.033518824726343155,0.13407529890537262
1679068256230530800,9.03153076171875,9.696516990661621,-0.040701430290937424,0.12928688526153564
1679068256250550800,9.05155078125,9.670180320739746,0.004788403399288654,0.13168109953403473
1679068256270569700,9.07156982421875,9.691728591918945,-0.0071826050989329815,0.1412578970193863
1679068256290528800,9.09152880859375,9.670180320739746,-0.014365210197865963,0.12689268589019775
1679068256310547700,9.111547607421874,9.670180320739746,-0.011971008032560349,0.1412578970193863
1679068256330568000,9.13156787109375,9.679757118225098,-0.014365210197865963,0.1388636976480484
1679068256350525700,9.151525634765624,9.691728591918945,-0.011971008032560349,0.1604115068912506
1679068256370546000,9.1715458984375,9.701305389404297,-0.011971008032560349,0.10534487664699554
1679068256390564900,9.19156494140625,9.696516990661621,0,0.1364694982767105
1679068256410524000,9.21152392578125,9.696516990661621,-0.011971008032560349,0.14604631066322327
1679068256430482000,9.23148193359375,9.68933391571045,-0.011971008032560349,0.14844051003456116
1679068256450562800,9.251562744140625,9.679757118225098,0,0.14604631066322327
1679068256470581800,9.271581787109374,9.677363395690918,-0.026336219161748886,0.12449848651885986
1679068256490539800,9.291539794921874,9.6989107131958,-0.014365210197865963,0.13168109953403473
1679068256511535900,9.312535888671874,9.68933391571045,-0.016759412363171577,0.15083470940589905
1679068256532532700,9.33353271484375,9.674968719482422,-0.0454898327589035,0.1412578970193863
1679068256552552000,9.353552001953124,9.68694019317627,-0.031124621629714966,0.13168109953403473
1679068256572571000,9.37357080078125,9.710882186889648,-0.047884032130241394,0.13168109953403473
1679068256592530000,9.393530029296874,9.68694019317627,-0.009576806798577309,0.12449848651885986
1679068256612548900,9.413548828125,9.682151794433594,-0.016759412363171577,0.11971008777618408
1679068256632568800,9.43356884765625,9.68694019317627,-0.009576806798577309,0.14365209639072418
1679068256652526800,9.45352685546875,9.691728591918945,-0.040701430290937424,0.12449848651885986
1679068256672546800,9.473546875,9.677363395690918,-0.016759412363171577,0.11252748221158981
1679068256692565800,9.493565673828124,9.674968719482422,-0.019153613597154617,0.11971008777618408
1679068256713561900,9.514561767578124,9.682151794433594,-0.016759412363171577,0.1412578970193863
1679068256733581800,9.534581787109374,9.691728591918945,0.002394201699644327,0.15083470940589905
1679068256753539800,9.554539794921874,9.684545516967773,-0.021547814831137657,0.12928688526153564
1679068256773499000,9.574498779296874,9.696516990661621,-0.0071826050989329815,0.12689268589019775
1679068256793578800,9.594578857421874,9.679757118225098,-0.002394201699644327,0.14604631066322327
1679068256814574800,9.615574951171874,9.68694019317627,-0.019153613597154617,0.1173158809542656
1679068256834534000,9.635533935546874,9.679757118225098,-0.016759412363171577,0.12928688526153564
1679068256854492000,9.655491943359374,9.68933391571045,-0.021547814831137657,0.1149216815829277
1679068256875549000,9.676548828125,9.68933391571045,-0.009576806798577309,0.12449848651885986
1679068256895569000,9.69656884765625,9.677363395690918,-0.019153613597154617,0.12449848651885986
1679068256916564700,9.717564697265624,9.682151794433594,-0.002394201699644327,0.13407529890537262
1679068256936401000,9.73740087890625,9.679757118225098,0.009576806798577309,0.12928688526153564
1679068256956542700,9.757542724609374,9.68933391571045,-0.0071826050989329815,0.13168109953403473
1679068256976562000,9.77756201171875,9.6989107131958,-0.031124621629714966,0.1364694982767105
1679068256996582000,9.797581787109374,9.694122314453125,-0.016759412363171577,0.1412578970193863
1679068257016540000,9.817539794921874,9.694122314453125,-0.011971008032560349,0.1364694982767105
1679068257036560000,9.837559814453124,9.691728591918945,-0.009576806798577309,0.1412578970193863
1679068257057555700,9.8585556640625,9.703699111938477,-0.038307227194309235,0.12928688526153564
1679068257077575000,9.878574951171874,9.701305389404297,-0.026336219161748886,0.1388636976480484
1679068257097533700,9.89853369140625,9.667786598205566,0.009576806798577309,0.12928688526153564
1679068257117553000,9.918552978515624,9.682151794433594,-0.014365210197865963,0.1364694982767105
1679068257137571800,9.93857177734375,9.682151794433594,-0.0071826050989329815,0.12449848651885986
1679068257157531000,9.95853076171875,9.68933391571045,-0.002394201699644327,0.13407529890537262
1679068257178467800,9.9794677734375,9.677363395690918,-0.011971008032560349,0.1364694982767105
1679068257198548700,9.999548828125,9.68694019317627,-0.011971008032560349,0.13168109953403473
1679068257218568000,10.01956787109375,9.677363395690918,0,0.11971008777618408
1679068257238526700,10.039526611328125,9.667786598205566,-0.009576806798577309,0.12210428714752197
1679068257258546000,10.0595458984375,9.68933391571045,-0.004788403399288654,0.1364694982767105
1679068257278566000,10.07956591796875,9.682151794433594,0.009576806798577309,0.14604631066322327
1679068257298524000,10.09952392578125,9.674968719482422,-0.0071826050989329815,0.12210428714752197
1679068257318544000,10.1195439453125,9.696516990661621,-0.016759412363171577,0.1173158809542656
1679068257339539700,10.140539794921875,9.68933391571045,-0.038307227194309235,0.14604631066322327
1679068257359559000,10.160558837890624,9.68694019317627,-0.014365210197865963,0.13407529890537262
1679068257380554800,10.1815546875,9.703699111938477,-0.0071826050989329815,0.1604115068912506
1679068257400513800,10.201513671875,9.696516990661621,-0.016759412363171577,0.1388636976480484
1679068257420532700,10.22153271484375,9.682151794433594,-0.021547814831137657,0.1388636976480484
1679068257440552700,10.241552734375,9.682151794433594,-0.033518824726343155,0.15083470940589905
1679068257460572000,10.261572021484374,9.691728591918945,-0.014365210197865963,0.12449848651885986
1679068257480531000,10.281531005859375,9.6989107131958,-0.031124621629714966,0.13168109953403473
1679068257500550000,10.3015498046875,9.696516990661621,-0.016759412363171577,0.13407529890537262
1679068257521545700,10.322545654296874,9.667786598205566,-0.009576806798577309,0.13168109953403473
1679068257542358800,10.34335888671875,9.68694019317627,-0.021547814831137657,0.1364694982767105
1679068257563538000,10.364537841796874,9.684545516967773,-0.040701430290937424,0.12449848651885986
1679068257584533800,10.38553369140625,9.677363395690918,-0.028730420395731926,0.12449848651885986
1679068257604553700,10.4055537109375,9.6989107131958,-0.0454898327589035,0.1173158809542656
1679068257624573000,10.425572998046874,9.703699111938477,-0.011971008032560349,0.1412578970193863
1679068257644531700,10.44553173828125,9.694122314453125,0.002394201699644327,0.12449848651885986
1679068257664551000,10.465551025390624,9.68694019317627,-0.014365210197865963,0.11252748221158981
1679068257684571000,10.48557080078125,9.667786598205566,-0.019153613597154617,0.1412578970193863
1679068257705566700,10.506566650390624,9.674968719482422,-0.004788403399288654,0.1364694982767105
1679068257726562800,10.527562744140624,9.679757118225098,-0.004788403399288654,0.13407529890537262
1679068257747559000,10.548558837890624,9.710882186889648,-0.014365210197865963,0.13168109953403473
1679068257767577900,10.568577880859374,9.701305389404297,-0.035913024097681046,0.13168109953403473
1679068257787537000,10.588536865234374,9.694122314453125,-0.033518824726343155,0.11252748221158981
1679068257809569800,10.61056982421875,9.679757118225098,-0.011971008032560349,0.13407529890537262
1679068257830566000,10.63156591796875,9.677363395690918,-0.004788403399288654,0.12928688526153564
1679068257850463700,10.651463623046874,9.679757118225098,-0.004788403399288654,0.15322890877723694
1679068257870544000,10.6715439453125,9.672574996948242,0.009576806798577309,0.1388636976480484
1679068257891539700,10.692539794921874,9.691728591918945,-0.009576806798577309,0.13407529890537262
1679068257911560000,10.712559814453124,9.679757118225098,-0.014365210197865963,0.12928688526153564
1679068257932555800,10.7335556640625,9.68933391571045,0.004788403399288654,0.14844051003456116
1679068257952574700,10.75357470703125,9.667786598205566,0,0.14365209639072418
1679068257973570800,10.77457080078125,9.68694019317627,-0.004788403399288654,0.1364694982767105
1679068257993529900,10.79452978515625,9.708487510681152,-0.040701430290937424,0.12210428714752197
1679068258014525700,10.815525634765624,9.68933391571045,-0.002394201699644327,0.14365209639072418
1679068258034545000,10.835544921875,9.696516990661621,-0.021547814831137657,0.1173158809542656
1679068258054564900,10.85556494140625,9.667786598205566,-0.011971008032560349,0.12449848651885986
1679068258074583800,10.875583740234376,9.696516990661621,-0.014365210197865963,0.11971008777618408
1679068258094542800,10.89554296875,9.696516990661621,-0.031124621629714966,0.13407529890537262
1679068258114561800,10.915561767578126,9.694122314453125,-0.026336219161748886,0.1149216815829277
1679068258134581800,10.935581787109374,9.694122314453125,-0.038307227194309235,0.1364694982767105
1679068258154539800,10.955539794921876,9.672574996948242,-0.014365210197865963,0.14844051003456116
1679068258174500900,10.9755009765625,9.684545516967773,-0.009576806798577309,0.12449848651885986
1679068258194581800,10.995581787109375,9.679757118225098,-0.026336219161748886,0.1412578970193863
1679068258214478800,11.015478759765625,9.696516990661621,-0.047884032130241394,0.13168109953403473
1679068258234559700,11.035559814453125,9.703699111938477,-0.038307227194309235,0.1364694982767105
1679068258254578700,11.05557861328125,9.68933391571045,0,0.12689268589019775
1679068258274537700,11.075537841796875,9.670180320739746,-0.009576806798577309,0.11971008777618408
1679068258294557000,11.095556884765625,9.701305389404297,-0.026336219161748886,0.13168109953403473
1679068258315552800,11.116552734375,9.68933391571045,-0.023942016065120697,0.11971008777618408
1679068258336548900,11.137548828125,9.708487510681152,-0.026336219161748886,0.13168109953403473
1679068258357544700,11.158544677734374,9.682151794433594,0.002394201699644327,0.14365209639072418
1679068258377565000,11.17856494140625,9.720458984375,-0.0454898327589035,0.11971008777618408
1679068258397584000,11.198583984375,9.66539192199707,-0.002394201699644327,0.1412578970193863
1679068258417543000,11.21854296875,9.703699111938477,-0.047884032130241394,0.12928688526153564
1679068258437561900,11.238561767578124,9.674968719482422,-0.014365210197865963,0.12689268589019775
1679068258457581800,11.258581787109375,9.682151794433594,-0.0071826050989329815,0.12210428714752197
1679068258477539800,11.278539794921874,9.708487510681152,-0.002394201699644327,0.14844051003456116
1679068258497558800,11.298558837890624,9.66539192199707,-0.026336219161748886,0.12449848651885986
1679068258517578800,11.318578857421874,9.696516990661621,-0.028730420395731926,0.12928688526153564
1679068258537536800,11.338536865234374,9.701305389404297,-0.0071826050989329815,0.12689268589019775
1679068258557556700,11.358556640625,9.713275909423828,-0.047884032130241394,0.15083470940589905
1679068258577576000,11.378575927734374,9.706093788146973,-0.033518824726343155,0.14365209639072418
1679068258598571800,11.39957177734375,9.6989107131958,-0.040701430290937424,0.1388636976480484
1679068258618530800,11.41953076171875,9.708487510681152,-0.0454898327589035,0.14604631066322327
1679068258638549800,11.4395498046875,9.682151794433594,-0.043095629662275314,0.1412578970193863
1679068258658569700,11.45956982421875,9.691728591918945,-0.035913024097681046,0.15083470940589905
1679068258679565800,11.48056591796875,9.701305389404297,-0.011971008032560349,0.1364694982767105
1679068258700500700,11.501500732421874,9.674968719482422,-0.043095629662275314,0.1412578970193863
1679068258721557800,11.522557861328124,9.6989107131958,-0.021547814831137657,0.1149216815829277
1679068258741576700,11.54257666015625,9.713275909423828,-0.043095629662275314,0.15322890877723694
1679068258761535700,11.56253564453125,9.706093788146973,-0.031124621629714966,0.12449848651885986
1679068258781554700,11.5825546875,9.701305389404297,-0.011971008032560349,0.10773907601833344
1679068258801575000,11.602574951171874,9.701305389404297,-0.035913024097681046,0.12689268589019775
1679068258821533000,11.622532958984374,9.710882186889648,-0.033518824726343155,0.12689268589019775
1679068258841550800,11.64255078125,9.684545516967773,-0.011971008032560349,0.1388636976480484
1679068258861569800,11.66256982421875,9.68933391571045,-0.021547814831137657,0.11971008777618408
1679068258881528800,11.68252880859375,9.68694019317627,-0.028730420395731926,0.12689268589019775
1679068258901547800,11.7025478515625,9.694122314453125,-0.035913024097681046,0.1388636976480484
1679068258921567700,11.722567626953126,9.710882186889648,-0.038307227194309235,0.14844051003456116
1679068258942563800,11.743563720703126,9.694122314453125,-0.0454898327589035,0.13168109953403473
1679068258962582800,11.763582763671875,9.6989107131958,-0.040701430290937424,0.14844051003456116
1679068258982480600,11.783480712890626,9.701305389404297,-0.026336219161748886,0.13168109953403473
1679068259002560800,11.803560791015625,9.706093788146973,-0.023942016065120697,0.1149216815829277
1679068259022580700,11.823580810546876,9.6989107131958,-0.043095629662275314,0.14844051003456116
1679068259042538800,11.843538818359375,9.6989107131958,-0.028730420395731926,0.12928688526153564
1679068259062557700,11.8635576171875,9.708487510681152,-0.043095629662275314,0.1412578970193863
1679068259084530700,11.88553076171875,9.691728591918945,-0.0454898327589035,0.1364694982767105
1679068259104550700,11.905550537109375,9.706093788146973,-0.033518824726343155,0.13407529890537262
1679068259125546800,11.926546630859375,9.710882186889648,-0.038307227194309235,0.1388636976480484
1679068259145504800,11.9465048828125,9.682151794433594,-0.028730420395731926,0.12689268589019775
1679068259165523700,11.966523681640625,9.72285270690918,-0.043095629662275314,0.12928688526153564
1679068259185546800,11.986546630859374,9.706093788146973,-0.040701430290937424,0.1412578970193863
1679068259205565700,12.006565673828124,9.694122314453125,-0.0454898327589035,0.1388636976480484
1679068259225523700,12.026523681640626,9.715670585632324,-0.035913024097681046,0.1388636976480484
1679068259245543700,12.046543701171874,9.703699111938477,-0.023942016065120697,0.12689268589019775
1679068259265562600,12.066562744140626,9.682151794433594,-0.040701430290937424,0.13407529890537262
1679068259285582800,12.086582763671874,9.703699111938477,-0.028730420395731926,0.12689268589019775
1679068259305540900,12.106540771484376,9.720458984375,-0.0071826050989329815,0.11971008777618408
1679068259325560800,12.126560791015624,9.710882186889648,-0.038307227194309235,0.1412578970193863
1679068259345579800,12.146579833984376,9.696516990661621,-0.026336219161748886,0.11971008777618408
1679068259365538800,12.166538818359374,9.68933391571045,-0.019153613597154617,0.13168109953403473
1679068259386534700,12.18753466796875,9.715670585632324,-0.026336219161748886,0.13168109953403473
1679068259406553900,12.207553955078126,9.682151794433594,-0.023942016065120697,0.1388636976480484
1679068259426573800,12.22757373046875,9.713275909423828,-0.040701430290937424,0.12449848651885986
1679068259446470700,12.247470703125,9.68933391571045,-0.019153613597154617,0.13168109953403473
1679068259466551800,12.2675517578125,9.6989107131958,-0.026336219161748886,0.12210428714752197
1679068259486570800,12.28757080078125,9.715670585632324,-0.026336219161748886,0.12210428714752197
1679068259507566800,12.30856689453125,9.682151794433594,-0.002394201699644327,0.12689268589019775
1679068259527870000,12.328869873046875,9.713275909423828,-0.047884032130241394,0.14844051003456116
1679068259549109800,12.35010986328125,9.72285270690918,-0.035913024097681046,0.12449848651885986
1679068259569067800,12.37006787109375,9.682151794433594,0.004788403399288654,0.12928688526153564
1679068259589087700,12.390087646484375,9.713275909423828,-0.016759412363171577,0.1364694982767105
1679068259608824300,12.40982421875,9.68933391571045,-0.028730420395731926,0.12689268589019775
1679068259628783400,12.429783447265624,9.684545516967773,-0.019153613597154617,0.11013327538967133
1679068259648802300,12.44980224609375,9.684545516967773,-0.011971008032560349,0.13168109953403473
1679068259669798400,12.47079833984375,9.715670585632324,-0.031124621629714966,0.1173158809542656
1679068259689818400,12.490818359375,9.701305389404297,-0.031124621629714966,0.12210428714752197
1679068259709776400,12.5107763671875,9.691728591918945,-0.0454898327589035,0.1364694982767105
1679068259730772500,12.5317724609375,9.710882186889648,-0.028730420395731926,0.12449848651885986
1679068259750792400,12.55179248046875,9.684545516967773,-0.004788403399288654,0.14604631066322327
1679068259770811400,12.571811279296876,9.710882186889648,-0.047884032130241394,0.14365209639072418
1679068259790769400,12.591769287109376,9.679757118225098,-0.043095629662275314,0.1364694982767105
1679068259810789400,12.611789306640626,9.710882186889648,-0.040701430290937424,0.12210428714752197
1679068259830808300,12.631808349609376,9.708487510681152,-0.043095629662275314,0.14365209639072418
1679068259850767400,12.651767333984376,9.68933391571045,-0.026336219161748886,0.1149216815829277
1679068259870786300,12.671786376953126,9.710882186889648,-0.023942016065120697,0.12449848651885986
1679068259890806500,12.691806640625,9.706093788146973,-0.019153613597154617,0.12928688526153564
1679068259910825500,12.711825439453126,9.682151794433594,0.009576806798577309,0.15562310814857483
1679068259930784500,12.731784423828126,9.715670585632324,-0.011971008032560349,0.1388636976480484
1679068259950803500,12.751803466796876,9.691728591918945,0,0.12928688526153564
1679068259970823400,12.771823486328126,9.694122314453125,-0.047884032130241394,0.13168109953403473
1679068259990781400,12.791781494140626,9.68933391571045,0.004788403399288654,0.14604631066322327
1679068260010801400,12.811801513671876,9.684545516967773,-0.021547814831137657,0.1388636976480484
1679068260030701800,12.831701904296875,9.694122314453125,-0.028730420395731926,0.1388636976480484
1679068260050660600,12.85166064453125,9.742006301879883,-0.033518824726343155,0.10295066982507706
1679068260070679800,12.8716796875,9.672574996948242,0,0.1412578970193863
1679068260090699800,12.89169970703125,9.715670585632324,-0.026336219161748886,0.09576806426048279
1679068260110633500,12.911633544921875,9.713275909423828,-0.004788403399288654,0.1364694982767105
1679068260130652400,12.93165234375,9.684545516967773,-0.026336219161748886,0.12689268589019775
1679068260150672400,12.95167236328125,9.691728591918945,-0.014365210197865963,0.13407529890537262
1679068260170475000,12.97147509765625,9.701305389404297,-0.043095629662275314,0.15562310814857483
1679068260190497000,12.9914970703125,9.696516990661621,-0.038307227194309235,0.12689268589019775
1679068260210517200,13.011517333984376,9.682151794433594,-0.014365210197865963,0.14604631066322327
1679068260230475000,13.03147509765625,9.696516990661621,-0.035913024097681046,0.15322890877723694
1679068260250495200,13.0514951171875,9.684545516967773,-0.033518824726343155,0.12689268589019775
1679068260270514200,13.07151416015625,9.696516990661621,-0.011971008032560349,0.12928688526153564
1679068260290473200,13.09147314453125,9.674968719482422,-0.0071826050989329815,0.12210428714752197
1679068260310492200,13.1114921875,9.684545516967773,-0.016759412363171577,0.12928688526153564
1679068260330512100,13.13151220703125,9.691728591918945,-0.028730420395731926,0.11971008777618408
1679068260350470100,13.15147021484375,9.66539192199707,0.002394201699644327,0.1412578970193863
1679068260370490000,13.171489990234376,9.691728591918945,-0.023942016065120697,0.1364694982767105
1679068260390509000,13.191509033203126,9.703699111938477,-0.035913024097681046,0.12449848651885986
1679068260410529000,13.211529052734376,9.66539192199707,-0.016759412363171577,0.12928688526153564
1679068260431525000,13.232525146484376,9.715670585632324,-0.016759412363171577,0.12210428714752197
1679068260451483100,13.252483154296876,9.670180320739746,-0.038307227194309235,0.13168109953403473
1679068260471503000,13.272503173828126,9.703699111938477,-0.043095629662275314,0.13168109953403473
1679068260492499200,13.293499267578126,9.682151794433594,-0.004788403399288654,0.1388636976480484
1679068260512518100,13.31351806640625,9.684545516967773,-0.038307227194309235,0.12928688526153564
1679068260532477200,13.333477294921876,9.706093788146973,-0.0071826050989329815,0.1364694982767105
1679068260552496000,13.35349609375,9.696516990661621,-0.0454898327589035,0.14365209639072418
1679068260572454100,13.3734541015625,9.68933391571045,-0.009576806798577309,0.12689268589019775
1679068260592474000,13.39347412109375,9.672574996948242,0,0.12928688526153564
1679068260612493000,13.4134931640625,9.679757118225098,-0.019153613597154617,0.12210428714752197
1679068260632513000,13.433512939453125,9.658209800720215,0.009576806798577309,0.12689268589019775
1679068260652471000,13.453470947265625,9.701305389404297,-0.016759412363171577,0.12689268589019775
1679068260673528000,13.474528076171875,9.708487510681152,-0.023942016065120697,0.14604631066322327
1679068260693487000,13.494487060546875,9.677363395690918,-0.0454898327589035,0.12689268589019775
1679068260713506000,13.514506103515625,9.708487510681152,-0.031124621629714966,0.12449848651885986
1679068260733526000,13.534526123046875,9.674968719482422,-0.019153613597154617,0.12928688526153564
1679068260753484000,13.554484130859375,9.667786598205566,0.0071826050989329815,0.14604631066322327
1679068260773504000,13.57450390625,9.694122314453125,-0.026336219161748886,0.11971008777618408
1679068260793523200,13.594523193359375,9.682151794433594,-0.028730420395731926,0.12449848651885986
1679068260813482200,13.614482177734375,9.706093788146973,-0.038307227194309235,0.12689268589019775
1679068260834478000,13.63547802734375,9.696516990661621,-0.023942016065120697,0.1364694982767105
1679068260855474200,13.65647412109375,9.677363395690918,0,0.13407529890537262
1679068260875493000,13.6764931640625,9.72285270690918,-0.028730420395731926,0.1388636976480484
1679068260895513000,13.69651318359375,9.667786598205566,0.004788403399288654,0.12449848651885986
1679068260915288000,13.7162880859375,9.708487510681152,-0.038307227194309235,0.13407529890537262
1679068260935491000,13.736490966796875,9.696516990661621,-0.019153613597154617,0.1364694982767105
1679068260955510000,13.756510009765625,9.672574996948242,0.004788403399288654,0.1173158809542656
1679068260975530200,13.7765302734375,9.674968719482422,-0.002394201699644327,0.1388636976480484
1679068260995427000,13.796427001953125,9.694122314453125,-0.038307227194309235,0.1364694982767105
1679068261016484000,13.817484130859375,9.694122314453125,-0.014365210197865963,0.13168109953403473
1679068261037480200,13.838480224609375,9.706093788146973,-0.047884032130241394,0.14604631066322327
1679068261059514000,13.86051416015625,9.68933391571045,-0.004788403399288654,0.1388636976480484
1679068261079472000,13.88047216796875,9.679757118225098,-0.016759412363171577,0.13407529890537262
1679068261099492000,13.9004921875,9.694122314453125,-0.004788403399288654,0.13407529890537262
1679068261119511000,13.920510986328125,9.66539192199707,0.004788403399288654,0.13168109953403473
1679068261139470000,13.940469970703125,9.703699111938477,-0.038307227194309235,0.15562310814857483
1679068261159489000,13.960489013671875,9.68933391571045,-0.009576806798577309,0.12928688526153564
1679068261179450000,13.9804501953125,9.68694019317627,-0.043095629662275314,0.13407529890537262
1679068261199470000,14.000469970703126,9.694122314453125,-0.014365210197865963,0.1173158809542656
1679068261219489000,14.020489013671876,9.694122314453125,-0.031124621629714966,0.12210428714752197
1679068261239509200,14.04050927734375,9.682151794433594,-0.009576806798577309,0.1412578970193863
1679068261259528200,14.060528076171876,9.715670585632324,-0.002394201699644327,0.12928688526153564
1679068261279486200,14.080486328125,9.672574996948242,-0.009576806798577309,0.13168109953403473
1679068261300482000,14.10148193359375,9.708487510681152,-0.0454898327589035,0.12210428714752197
1679068261321479200,14.122479248046876,9.679757118225098,0.002394201699644327,0.12210428714752197
1679068261341498000,14.142498046875,9.703699111938477,-0.038307227194309235,0.14844051003456116
1679068261362494200,14.163494140625,9.667786598205566,0.009576806798577309,0.14604631066322327
1679068261382452200,14.1834521484375,9.713275909423828,-0.021547814831137657,0.12928688526153564
1679068261402472200,14.20347216796875,9.694122314453125,-0.043095629662275314,0.12689268589019775
1679068261422430200,14.22343017578125,9.684545516967773,-0.009576806798577309,0.12928688526153564
1679068261442450200,14.2434501953125,9.694122314453125,-0.023942016065120697,0.13407529890537262
1679068261462408200,14.263408203125,9.718064308166504,-0.0454898327589035,0.13407529890537262
1679068261482489000,14.283489013671876,9.66299819946289,0.004788403399288654,0.1364694982767105
1679068261503485200,14.304485107421876,9.677363395690918,-0.004788403399288654,0.12210428714752197
1679068261524481000,14.32548095703125,9.701305389404297,-0.014365210197865963,0.12928688526153564
1679068261544500200,14.345500244140625,9.68933391571045,-0.014365210197865963,0.1173158809542656
1679068261564520200,14.365520263671876,9.6989107131958,-0.033518824726343155,0.12210428714752197
1679068261586492200,14.3874921875,9.694122314453125,-0.019153613597154617,0.12689268589019775
1679068261606512000,14.40751220703125,9.706093788146973,-0.019153613597154617,0.12689268589019775
1679068261626470100,14.42747021484375,9.68933391571045,0.002394201699644327,0.14365209639072418
1679068261646490000,14.447489990234375,9.682151794433594,-0.016759412363171577,0.13168109953403473
1679068261666509000,14.467509033203125,9.670180320739746,-0.004788403399288654,0.12928688526153564
1679068261686529000,14.487529052734375,9.684545516967773,-0.009576806798577309,0.12449848651885986
1679068261706487000,14.507487060546875,9.677363395690918,-0.026336219161748886,0.12449848651885986
1679068261726507000,14.527507080078125,9.672574996948242,-0.011971008032560349,0.13168109953403473
1679068261747503000,14.548503173828125,9.694122314453125,-0.019153613597154617,0.11971008777618408
1679068261767522000,14.56852197265625,9.68933391571045,-0.021547814831137657,0.1388636976480484
1679068261787481000,14.588481201171875,9.684545516967773,-0.023942016065120697,0.11971008777618408
1679068261807500000,14.6085,9.701305389404297,-0.043095629662275314,0.12689268589019775
1679068261828496100,14.62949609375,9.694122314453125,-0.038307227194309235,0.1173158809542656
1679068261849492200,14.6504921875,9.696516990661621,-0.019153613597154617,0.13407529890537262
1679068261870488000,14.671488037109375,9.682151794433594,-0.011971008032560349,0.10773907601833344
1679068261891484200,14.692484130859375,9.696516990661621,-0.031124621629714966,0.13168109953403473
1679068261911443200,14.712443115234375,9.706093788146973,-0.026336219161748886,0.11252748221158981
1679068261931523000,14.732523193359375,9.701305389404297,-0.016759412363171577,0.11971008777618408
1679068261951421200,14.752421142578125,9.660603523254395,-0.004788403399288654,0.12449848651885986
1679068261971501000,14.7725009765625,9.684545516967773,-0.05027823522686958,0.12689268589019775
1679068261991460000,14.792460205078125,9.696516990661621,-0.026336219161748886,0.1149216815829277
1679068262011479000,14.81247900390625,9.694122314453125,-0.019153613597154617,0.13407529890537262
1679068262032475100,14.83347509765625,9.679757118225098,-0.011971008032560349,0.12210428714752197
1679068262052495000,14.8534951171875,9.68933391571045,-0.011971008032560349,0.1173158809542656
1679068262072514000,14.87351416015625,9.696516990661621,-0.019153613597154617,0.14604631066322327
1679068262092473000,14.89347314453125,9.691728591918945,-0.014365210197865963,0.1149216815829277
1679068262113469200,14.91446923828125,9.68933391571045,-0.016759412363171577,0.11971008777618408
1679068262133488000,14.934488037109375,9.684545516967773,-0.004788403399288654,0.12449848651885986
1679068262154484200,14.955484130859375,9.684545516967773,-0.033518824726343155,0.11971008777618408
1679068262174445000,14.975445068359376,9.672574996948242,-0.004788403399288654,0.1364694982767105
1679068262194526200,14.995526123046876,9.701305389404297,-0.038307227194309235,0.11971008777618408
1679068262214423000,15.015423095703126,9.6989107131958,-0.004788403399288654,0.15562310814857483
1679068262234504200,15.035504150390626,9.694122314453125,-0.026336219161748886,0.12689268589019775
1679068262254523100,15.055523193359376,9.679757118225098,-0.031124621629714966,0.13407529890537262
1679068262275519200,15.076519287109376,9.696516990661621,-0.011971008032560349,0.12449848651885986
1679068262295478000,15.09647802734375,9.691728591918945,-0.023942016065120697,0.12928688526153564
1679068262315497200,15.116497314453126,9.694122314453125,-0.021547814831137657,0.11252748221158981
1679068262335456000,15.1364560546875,9.674968719482422,0.004788403399288654,0.1364694982767105
1679068262355475200,15.15647509765625,9.677363395690918,-0.011971008032560349,0.12689268589019775
1679068262375494100,15.176494140625,9.68933391571045,-0.011971008032560349,0.13407529890537262
1679068262395514000,15.19651416015625,9.684545516967773,-0.033518824726343155,0.12210428714752197
1679068262415411200,15.2164111328125,9.66539192199707,-0.019153613597154617,0.12689268589019775
1679068262436529200,15.237529052734375,9.684545516967773,-0.011971008032560349,0.12449848651885986
1679068262456488200,15.25748828125,9.68933391571045,-0.009576806798577309,0.1388636976480484
1679068262476507100,15.277507080078125,9.682151794433594,-0.028730420395731926,0.1364694982767105
1679068262496527000,15.297527099609376,9.68694019317627,-0.026336219161748886,0.14365209639072418
1679068262516485000,15.317485107421875,9.672574996948242,0.004788403399288654,0.1388636976480484
1679068262536505000,15.337505126953126,9.701305389404297,-0.033518824726343155,0.1412578970193863
1679068262556524000,15.35752392578125,9.710882186889648,-0.026336219161748886,0.13407529890537262
1679068262576422100,15.377422119140626,9.660603523254395,0.004788403399288654,0.12928688526153564
1679068262596502000,15.397501953125,9.715670585632324,-0.0454898327589035,0.1364694982767105
1679068262616522200,15.417522216796876,9.672574996948242,-0.002394201699644327,0.1364694982767105
1679068262637518000,15.43851806640625,9.677363395690918,-0.011971008032560349,0.12449848651885986
1679068262657476000,15.45847607421875,9.684545516967773,-0.004788403399288654,0.1412578970193863
1679068262677496000,15.47849609375,9.674968719482422,-0.002394201699644327,0.1412578970193863
1679068262697515000,15.498514892578125,9.674968719482422,-0.031124621629714966,0.13168109953403473
1679068262718511000,15.519510986328125,9.672574996948242,-0.011971008032560349,0.13168109953403473
1679068262738470100,15.53947021484375,9.68933391571045,-0.009576806798577309,0.1412578970193863
1679068262759527200,15.560527099609375,9.68933391571045,-0.016759412363171577,0.12449848651885986
1679068262780523000,15.58152294921875,9.682151794433594,0.0071826050989329815,0.1364694982767105
1679068262800481000,15.60148095703125,9.667786598205566,-0.011971008032560349,0.1173158809542656
1679068262820501200,15.621501220703125,9.68694019317627,-0.004788403399288654,0.12928688526153564
1679068262840459000,15.641458984375,9.670180320739746,-0.014365210197865963,0.12928688526153564
1679068262860479200,15.661479248046875,9.68933391571045,-0.0454898327589035,0.1412578970193863
1679068262880498200,15.681498291015625,9.68933391571045,0,0.1388636976480484
1679068262901494000,15.702493896484375,9.674968719482422,-0.014365210197865963,0.11252748221158981
1679068262921514200,15.72251416015625,9.708487510681152,-0.009576806798577309,0.14604631066322327
1679068262941472000,15.742471923828125,9.696516990661621,-0.033518824726343155,0.12210428714752197
1679068262962529000,15.763529052734375,9.6989107131958,-0.031124621629714966,0.13407529890537262
1679068262982488000,15.783488037109375,9.6989107131958,-0.047884032130241394,0.14604631066322327
1679068263003484200,15.804484130859375,9.706093788146973,-0.023942016065120697,0.13407529890537262
1679068263024480000,15.82547998046875,9.667786598205566,0.009576806798577309,0.14844051003456116
1679068263044499200,15.845499267578125,9.68694019317627,-0.026336219161748886,0.11971008777618408
1679068263064519200,15.865519287109375,9.679757118225098,0.004788403399288654,0.13168109953403473
1679068263084477200,15.885477294921875,9.706093788146973,-0.05027823522686958,0.1388636976480484
1679068263104497200,15.9054970703125,9.682151794433594,-0.009576806798577309,0.12928688526153564
1679068263124516000,15.92551611328125,9.68694019317627,-0.043095629662275314,0.15083470940589905
1679068263144474000,15.94547412109375,9.703699111938477,-0.026336219161748886,0.13407529890537262
1679068263164494000,15.965494140625,9.677363395690918,-0.009576806798577309,0.13168109953403473
1679068263184516000,15.98551611328125,9.703699111938477,-0.016759412363171577,0.12449848651885986
1679068263204474000,16.00547412109375,9.679757118225098,0.016759412363171577,0.1364694982767105
1679068263224494000,16.025494140625,9.682151794433594,-0.019153613597154617,0.13407529890537262
1679068263244513000,16.045512939453126,9.672574996948242,-0.021547814831137657,0.12449848651885986
1679068263264472000,16.06547216796875,9.718064308166504,-0.031124621629714966,0.11971008777618408
1679068263284491000,16.085490966796876,9.677363395690918,-0.011971008032560349,0.1412578970193863
1679068263304511200,16.10551123046875,9.677363395690918,-0.023942016065120697,0.1173158809542656
1679068263324469200,16.12546923828125,9.68694019317627,-0.004788403399288654,0.13407529890537262
1679068263344489200,16.1454892578125,9.706093788146973,-0.038307227194309235,0.1173158809542656
1679068263364508200,16.165508056640626,9.651026725769043,-0.004788403399288654,0.12689268589019775
1679068263384528100,16.185528076171874,9.703699111938477,-0.016759412363171577,0.1149216815829277
1679068263405524200,16.206524169921874,9.691728591918945,-0.040701430290937424,0.1412578970193863
1679068263425482200,16.226482177734376,9.708487510681152,-0.0454898327589035,0.14365209639072418
1679068263445502200,16.246502197265624,9.684545516967773,0.002394201699644327,0.11971008777618408
1679068263465521200,16.266521240234376,9.696516990661621,-0.021547814831137657,0.12449848651885986
1679068263488401200,16.289401123046876,9.684545516967773,0.009576806798577309,0.14365209639072418
1679068263516023600,16.3170234375,9.667786598205566,0.0071826050989329815,0.13407529890537262
1679068263536042500,16.33704248046875,9.732429504394531,-0.0071826050989329815,0.12449848651885986
1679068263556001500,16.35700146484375,9.696516990661621,-0.033518824726343155,0.1388636976480484
1679068263575959600,16.37695947265625,9.703699111938477,-0.033518824726343155,0.14365209639072418
1679068263595718700,16.39671875,9.708487510681152,-0.043095629662275314,0.1412578970193863
1679068263615614000,16.416614013671875,9.691728591918945,-0.014365210197865963,0.1388636976480484
1679068263635449900,16.436449951171873,9.682151794433594,-0.011971008032560349,0.12928688526153564
1679068263655585500,16.45658544921875,9.703699111938477,-0.021547814831137657,0.12689268589019775
1679068263675544300,16.47654443359375,9.706093788146973,-0.035913024097681046,0.12449848651885986
1679068263695563500,16.4965634765625,9.706093788146973,-0.047884032130241394,0.14844051003456116
1679068263715521500,16.516521484375,9.679757118225098,-0.023942016065120697,0.12210428714752197
1679068263735541500,16.53654150390625,9.703699111938477,-0.028730420395731926,0.13168109953403473
1679068263755560400,16.556560546875,9.703699111938477,-0.019153613597154617,0.1388636976480484
1679068263775580400,16.576580322265624,9.684545516967773,-0.031124621629714966,0.1412578970193863
1679068263795538400,16.596538330078126,9.706093788146973,-0.033518824726343155,0.1388636976480484
1679068263816534500,16.617534423828126,9.682151794433594,-0.011971008032560349,0.12210428714752197
1679068263836554500,16.637554443359374,9.696516990661621,-0.047884032130241394,0.12689268589019775
1679068263856573400,16.657573486328126,9.703699111938477,-0.038307227194309235,0.12449848651885986
1679068263876532500,16.677532470703124,9.670180320739746,-0.014365210197865963,0.14365209639072418
1679068263897467400,16.69846728515625,9.713275909423828,-0.047884032130241394,0.12928688526153564
1679068263917547500,16.718547607421876,9.703699111938477,-0.004788403399288654,0.10534487664699554
1679068263937567500,16.7385673828125,9.730035781860352,-0.038307227194309235,0.1388636976480484
1679068263957586400,16.75858642578125,9.68694019317627,-0.0454898327589035,0.13168109953403473
1679068263977545500,16.77854541015625,9.725247383117676,-0.014365210197865963,0.12449848651885986
1679068263997564400,16.798564453125,9.703699111938477,-0.043095629662275314,0.13168109953403473
1679068264017584400,16.81858447265625,9.6989107131958,-0.0454898327589035,0.12449848651885986
1679068264037542400,16.83854248046875,9.68933391571045,-0.038307227194309235,0.1173158809542656
1679068264057562400,16.858562255859376,9.718064308166504,-0.028730420395731926,0.12689268589019775
1679068264077581300,16.878581298828124,9.703699111938477,-0.019153613597154617,0.10055647045373917
1679068264097540400,16.898540283203126,9.6989107131958,-0.038307227194309235,0.12210428714752197
1679068264117559600,16.9185595703125,9.713275909423828,-0.033518824726343155,0.12689268589019775
1679068264137517300,16.938517333984375,9.6989107131958,-0.031124621629714966,0.12928688526153564
1679068264159551500,16.960551513671874,9.691728591918945,-0.031124621629714966,0.12449848651885986
1679068264180489500,16.981489501953124,9.703699111938477,-0.040701430290937424,0.13168109953403473
1679068264200569300,17.0015693359375,9.725247383117676,-0.023942016065120697,0.14365209639072418
1679068264220589300,17.02158935546875,9.708487510681152,-0.038307227194309235,0.12928688526153564
1679068264240547300,17.04154736328125,9.730035781860352,-0.014365210197865963,0.1173158809542656
1679068264260567600,17.061567626953124,9.734824180603027,-0.021547814831137657,0.1412578970193863
1679068264280586500,17.08158642578125,9.696516990661621,-0.014365210197865963,0.12210428714752197
1679068264301582300,17.102582275390624,9.718064308166504,-0.05027823522686958,0.14365209639072418
1679068264322578400,17.123578369140624,9.684545516967773,-0.026336219161748886,0.1388636976480484
1679068264342476500,17.1434765625,9.708487510681152,-0.043095629662275314,0.1364694982767105
1679068264362556400,17.163556396484374,9.701305389404297,-0.035913024097681046,0.15083470940589905
1679068264382576400,17.183576416015626,9.725247383117676,-0.004788403399288654,0.1364694982767105
1679068264402534400,17.203534423828124,9.706093788146973,-0.016759412363171577,0.1388636976480484
1679068264423591400,17.22459130859375,9.708487510681152,-0.026336219161748886,0.12449848651885986
1679068264443549400,17.244549560546876,9.674968719482422,0,0.13168109953403473
1679068264464546300,17.26554638671875,9.72285270690918,-0.031124621629714966,0.12928688526153564
1679068264484565500,17.2855654296875,9.6989107131958,-0.021547814831137657,0.12210428714752197
1679068264504584400,17.30558447265625,9.713275909423828,-0.038307227194309235,0.12689268589019775
1679068264524543500,17.32554345703125,9.718064308166504,-0.023942016065120697,0.12449848651885986
1679068264544562400,17.3455625,9.684545516967773,-0.047884032130241394,0.13407529890537262
1679068264564582400,17.36558251953125,9.715670585632324,-0.033518824726343155,0.12689268589019775
1679068264584540400,17.38554052734375,9.708487510681152,-0.011971008032560349,0.1364694982767105
1679068264604560400,17.405560302734376,9.6989107131958,-0.035913024097681046,0.12449848651885986
1679068264624579300,17.425579345703124,9.708487510681152,-0.047884032130241394,0.1412578970193863
1679068264644538400,17.445538330078126,9.713275909423828,-0.028730420395731926,0.12689268589019775
1679068264664557300,17.465557373046874,9.701305389404297,-0.035913024097681046,0.1364694982767105
1679068264685553400,17.486553466796874,9.6989107131958,-0.0454898327589035,0.1364694982767105
1679068264705573400,17.506573486328126,9.710882186889648,-0.023942016065120697,0.12689268589019775
1679068264726569500,17.527569580078126,9.691728591918945,-0.004788403399288654,0.13168109953403473
1679068264746588400,17.54758837890625,9.691728591918945,-0.011971008032560349,0.13407529890537262
1679068264766547500,17.56754736328125,9.6989107131958,-0.031124621629714966,0.1173158809542656
1679068264786566400,17.58756640625,9.68933391571045,-0.011971008032560349,0.12689268589019775
1679068264806586400,17.60758642578125,9.706093788146973,-0.043095629662275314,0.11971008777618408
1679068264826544400,17.62754443359375,9.701305389404297,-0.035913024097681046,0.13168109953403473
1679068264846564400,17.647564453125,9.708487510681152,-0.011971008032560349,0.12689268589019775
1679068264866583600,17.66758349609375,9.703699111938477,-0.014365210197865963,0.12928688526153564
1679068264886542300,17.687542236328124,9.703699111938477,-0.038307227194309235,0.12928688526153564
1679068264906561500,17.7075615234375,9.703699111938477,-0.026336219161748886,0.12689268589019775
1679068264928534500,17.729534423828124,9.679757118225098,-0.011971008032560349,0.13168109953403473
1679068264948492500,17.749492431640626,9.725247383117676,-0.026336219161748886,0.11971008777618408
1679068264969549300,17.77054931640625,9.694122314453125,-0.040701430290937424,0.12210428714752197
1679068264989569500,17.790569580078124,9.718064308166504,-0.031124621629714966,0.11971008777618408
1679068265009588500,17.81058837890625,9.6989107131958,-0.004788403399288654,0.12210428714752197
1679068265029547500,17.830547607421874,9.725247383117676,-0.035913024097681046,0.1388636976480484
1679068265049566500,17.85056640625,9.672574996948242,0.009576806798577309,0.13168109953403473
1679068265069585400,17.87058544921875,9.708487510681152,-0.047884032130241394,0.14604631066322327
1679068265089544400,17.89054443359375,9.706093788146973,-0.035913024097681046,0.12928688526153564
1679068265109563400,17.9105634765625,9.713275909423828,-0.047884032130241394,0.1412578970193863
1679068265129583400,17.930583251953124,9.674968719482422,-0.0071826050989329815,0.1412578970193863
1679068265149541400,17.950541259765625,9.706093788146973,-0.0454898327589035,0.15322890877723694
1679068265169561300,17.970561279296874,9.694122314453125,-0.026336219161748886,0.13168109953403473
1679068265189583400,17.990583251953126,9.696516990661621,-0.019153613597154617,0.12689268589019775
1679068265209541400,18.010541259765624,9.710882186889648,-0.047884032130241394,0.11971008777618408
1679068265229561300,18.030561279296876,9.706093788146973,-0.023942016065120697,0.11971008777618408
1679068265249580500,18.05058056640625,9.6989107131958,-0.026336219161748886,0.13168109953403473
1679068265269539300,18.070539306640626,9.706093788146973,-0.040701430290937424,0.13407529890537262
1679068265289558500,18.09055859375,9.679757118225098,-0.009576806798577309,0.1149216815829277
1679068265309578500,18.11057861328125,9.701305389404297,-0.047884032130241394,0.14604631066322327
1679068265330574300,18.13157421875,9.715670585632324,-0.043095629662275314,0.15083470940589905
1679068265350532400,18.151532470703124,9.684545516967773,-0.038307227194309235,0.12210428714752197
1679068265370552300,18.17155224609375,9.674968719482422,-0.014365210197865963,0.13407529890537262
1679068265390571500,18.191571533203124,9.706093788146973,-0.031124621629714966,0.13168109953403473
1679068265411506400,18.21250634765625,9.715670585632324,-0.035913024097681046,0.1173158809542656
1679068265431587300,18.23258740234375,9.708487510681152,-0.0454898327589035,0.12210428714752197
1679068265452400400,18.253400390625,9.703699111938477,-0.035913024097681046,0.11013327538967133
1679068265473579500,18.27457958984375,9.691728591918945,-0.031124621629714966,0.13168109953403473
1679068265493537500,18.29453759765625,9.672574996948242,0.009576806798577309,0.13407529890537262
1679068265513557500,18.3145576171875,9.694122314453125,-0.019153613597154617,0.12689268589019775
1679068265533576400,18.334576416015626,9.677363395690918,0.002394201699644327,0.13168109953403473
1679068265553535500,18.354535400390624,9.703699111938477,-0.011971008032560349,0.12928688526153564
1679068265574592500,18.375592529296874,9.677363395690918,-0.033518824726343155,0.12689268589019775
1679068265595588400,18.39658837890625,9.72285270690918,-0.009576806798577309,0.1388636976480484
1679068265615485400,18.4164853515625,9.691728591918945,-0.040701430290937424,0.1364694982767105
1679068265635566300,18.43656640625,9.701305389404297,-0.026336219161748886,0.12928688526153564
1679068265655524400,18.4565244140625,9.703699111938477,-0.031124621629714966,0.1412578970193863
1679068265675544300,18.47654443359375,9.701305389404297,-0.043095629662275314,0.12928688526153564
1679068265695563500,18.4965634765625,9.706093788146973,-0.011971008032560349,0.12689268589019775
1679068265715582500,18.51658251953125,9.691728591918945,-0.019153613597154617,0.12210428714752197
1679068265736517400,18.537517333984376,9.708487510681152,-0.038307227194309235,0.13407529890537262
1679068265757575400,18.558575439453126,9.696516990661621,0,0.11252748221158981
1679068265778571500,18.579571533203126,9.708487510681152,-0.014365210197865963,0.1388636976480484
1679068265798590500,18.599590576171874,9.653421401977539,-0.021547814831137657,0.13168109953403473
1679068265818549500,18.619549560546876,9.682151794433594,-0.038307227194309235,0.12449848651885986
1679068265838568400,18.639568359375,9.682151794433594,0.002394201699644327,0.13407529890537262
1679068265858587400,18.65958740234375,9.68933391571045,-0.004788403399288654,0.13168109953403473
1679068265878546400,18.67954638671875,9.701305389404297,-0.033518824726343155,0.13407529890537262
1679068265898565400,18.6995654296875,9.694122314453125,-0.033518824726343155,0.14365209639072418
1679068265919561500,18.7205615234375,9.6989107131958,-0.047884032130241394,0.1388636976480484
1679068265939581400,18.74058154296875,9.679757118225098,-0.021547814831137657,0.1173158809542656
1679068265959539500,18.76053955078125,9.68933391571045,-0.028730420395731926,0.1412578970193863
1679068265979498500,18.78049853515625,9.677363395690918,-0.019153613597154617,0.11971008777618408
1679068265999578400,18.800578369140624,9.706093788146973,-0.035913024097681046,0.12210428714752197
1679068266019537400,18.820537353515626,9.696516990661621,-0.023942016065120697,0.12689268589019775
1679068266039556400,18.840556396484374,9.679757118225098,-0.023942016065120697,0.12689268589019775
1679068266059576300,18.860576416015626,9.713275909423828,-0.014365210197865963,0.14844051003456116
1679068266079534300,18.880534423828124,9.679757118225098,-0.023942016065120697,0.14844051003456116
1679068266099554300,18.90055419921875,9.708487510681152,-0.0454898327589035,0.1388636976480484
1679068266119573500,18.920573486328124,9.679757118225098,0.002394201699644327,0.1388636976480484
1679068266139532500,18.940532470703126,9.684545516967773,-0.043095629662275314,0.13168109953403473
1679068266159490300,18.960490234375,9.710882186889648,-0.043095629662275314,0.12689268589019775
1679068266180489500,18.981489501953124,9.677363395690918,-0.0071826050989329815,0.12928688526153564
1679068266200569300,19.0015693359375,9.708487510681152,-0.035913024097681046,0.1364694982767105
1679068266221565400,19.0225654296875,9.68933391571045,0.002394201699644327,0.1412578970193863
1679068266241585400,19.04258544921875,9.6989107131958,-0.026336219161748886,0.1388636976480484
1679068266261543400,19.06254345703125,9.68933391571045,-0.009576806798577309,0.12928688526153564
1679068266281563400,19.0825634765625,9.672574996948242,-0.021547814831137657,0.13407529890537262
1679068266301582300,19.102582275390624,9.677363395690918,-0.002394201699644327,0.14604631066322327
1679068266321541400,19.122541259765626,9.677363395690918,-0.009576806798577309,0.13407529890537262
1679068266341499400,19.14249951171875,9.701305389404297,-0.019153613597154617,0.12689268589019775
1679068266361579500,19.16257958984375,9.694122314453125,-0.023942016065120697,0.12449848651885986
1679068266381538300,19.182538330078124,9.694122314453125,-0.016759412363171577,0.1412578970193863
1679068266401557500,19.2025576171875,9.679757118225098,-0.0071826050989329815,0.12449848651885986
1679068266421577500,19.222577392578124,9.677363395690918,-0.0071826050989329815,0.11971008777618408
1679068266442573300,19.2435732421875,9.682151794433594,-0.011971008032560349,0.12928688526153564
1679068266462531300,19.26353125,9.68694019317627,-0.031124621629714966,0.14844051003456116
1679068266482551600,19.283551513671874,9.701305389404297,-0.035913024097681046,0.1412578970193863
1679068266503547400,19.30454736328125,9.713275909423828,-0.047884032130241394,0.13168109953403473
1679068266523505400,19.32450537109375,9.672574996948242,-0.0071826050989329815,0.13407529890537262
1679068266543586300,19.34458642578125,9.696516990661621,-0.002394201699644327,0.14365209639072418
1679068266563544300,19.36454443359375,9.68933391571045,-0.009576806798577309,0.14604631066322327
1679068266583564500,19.384564453125,9.682151794433594,-0.028730420395731926,0.1173158809542656
1679068266603583500,19.40458349609375,9.68933391571045,-0.019153613597154617,0.14844051003456116
1679068266623542500,19.42454248046875,9.68933391571045,-0.028730420395731926,0.13168109953403473
1679068266643500500,19.44450048828125,9.694122314453125,-0.035913024097681046,0.1412578970193863
1679068266663581400,19.46458154296875,9.684545516967773,-0.014365210197865963,0.12928688526153564
1679068266683539500,19.48453955078125,9.708487510681152,-0.043095629662275314,0.14365209639072418
1679068266703559400,19.504559326171876,9.655815124511719,-0.011971008032560349,0.12928688526153564
1679068266724555500,19.525555419921876,9.6989107131958,-0.038307227194309235,0.15083470940589905
1679068266746588400,19.54758837890625,9.677363395690918,0.0071826050989329815,0.1364694982767105
1679068266766547500,19.56754736328125,9.708487510681152,-0.0454898327589035,0.15801730751991272
1679068266787543600,19.58854345703125,9.691728591918945,-0.014365210197865963,0.12928688526153564
1679068266807562500,19.6085625,9.6989107131958,-0.040701430290937424,0.1388636976480484
1679068266827582500,19.62858251953125,9.701305389404297,-0.031124621629714966,0.13407529890537262
1679068266847540500,19.64854052734375,9.674968719482422,0.014365210197865963,0.1388636976480484
1679068266867560400,19.668560546875,9.682151794433594,-0.023942016065120697,0.12928688526153564
1679068266887579400,19.688579345703126,9.68933391571045,-0.019153613597154617,0.13407529890537262
1679068266907538400,19.708538330078124,9.677363395690918,-0.004788403399288654,0.1149216815829277
1679068266927557400,19.728557373046876,9.691728591918945,-0.047884032130241394,0.12689268589019775
1679068266947515400,19.748515380859374,9.672574996948242,-0.014365210197865963,0.15083470940589905
1679068266967535400,19.768535400390626,9.68933391571045,-0.031124621629714966,0.1149216815829277
1679068266987554300,19.78855419921875,9.658209800720215,0.002394201699644327,0.1388636976480484
1679068267007574500,19.808574462890626,9.68933391571045,-0.038307227194309235,0.1412578970193863
1679068267028570400,19.8295703125,9.703699111938477,-0.043095629662275314,0.1364694982767105
1679068267049566500,19.85056640625,9.684545516967773,-0.011971008032560349,0.13168109953403473
1679068267069585400,19.87058544921875,9.682151794433594,-0.0071826050989329815,0.13407529890537262
1679068267089544400,19.89054443359375,9.696516990661621,-0.023942016065120697,0.13168109953403473
1679068267109563400,19.9105634765625,9.696516990661621,-0.011971008032560349,0.12449848651885986
1679068267129583400,19.930583251953124,9.701305389404297,-0.038307227194309235,0.1388636976480484
1679068267149541400,19.950541259765625,9.679757118225098,-0.019153613597154617,0.14604631066322327
1679068267169561300,19.970561279296874,9.713275909423828,-0.019153613597154617,0.11013327538967133
1679068267190559500,19.9915595703125,9.682151794433594,0.002394201699644327,0.12210428714752197
1679068267210579500,20.011579345703126,9.706093788146973,-0.031124621629714966,0.12449848651885986
1679068267230537500,20.031537353515624,9.66539192199707,-0.004788403399288654,0.13407529890537262
1679068267252678100,20.05367822265625,9.703699111938477,-0.0071826050989329815,0.15322890877723694
1679068267281613800,20.08261376953125,9.6989107131958,-0.019153613597154617,0.12449848651885986
1679068267301632800,20.1026328125,9.677363395690918,-0.009576806798577309,0.13407529890537262
1679068267321576400,20.122576416015626,9.703699111938477,-0.043095629662275314,0.12449848651885986
1679068267341587200,20.142587158203124,9.68694019317627,-0.035913024097681046,0.1388636976480484
1679068267361592300,20.16259228515625,9.701305389404297,-0.028730420395731926,0.11971008777618408
1679068267381503200,20.182503173828124,9.670180320739746,-0.028730420395731926,0.13407529890537262
1679068267401522200,20.202522216796876,9.684545516967773,-0.040701430290937424,0.1412578970193863
1679068267421542100,20.222542236328124,9.68933391571045,-0.0454898327589035,0.1364694982767105
1679068267441439200,20.242439208984376,9.694122314453125,-0.002394201699644327,0.1412578970193863
1679068267462496300,20.263496337890626,9.667786598205566,0,0.14844051003456116
1679068267482516200,20.28351611328125,9.706093788146973,-0.033518824726343155,0.12689268589019775
1679068267502535200,20.30353515625,9.679757118225098,-0.0071826050989329815,0.12449848651885986
1679068267523531300,20.32453125,9.682151794433594,-0.038307227194309235,0.13168109953403473
1679068267544527000,20.345527099609374,9.691728591918945,-0.033518824726343155,0.13168109953403473
1679068267564547300,20.36554736328125,9.677363395690918,-0.035913024097681046,0.13407529890537262
1679068267585543200,20.386543212890626,9.6989107131958,-0.043095629662275314,0.13407529890537262
1679068267605379300,20.40637939453125,9.694122314453125,-0.0071826050989329815,0.14365209639072418
1679068267625521200,20.426521240234376,9.677363395690918,-0.026336219161748886,0.14604631066322327
1679068267645540400,20.446540283203124,9.672574996948242,-0.011971008032560349,0.12689268589019775
1679068267665499100,20.4664990234375,9.706093788146973,-0.028730420395731926,0.12449848651885986
1679068267685518300,20.486518310546874,9.68933391571045,-0.011971008032560349,0.1364694982767105
1679068267705533200,20.506533203125,9.674968719482422,0.002394201699644327,0.1364694982767105
1679068267725469400,20.526469482421874,9.72285270690918,-0.026336219161748886,0.13168109953403473
1679068267745489400,20.546489501953126,9.68933391571045,-0.019153613597154617,0.1388636976480484
1679068267765508400,20.56650830078125,9.674968719482422,-0.021547814831137657,0.12210428714752197
1679068267785528300,20.5865283203125,9.708487510681152,-0.038307227194309235,0.12449848651885986
1679068267805478400,20.606478515625,9.694122314453125,-0.031124621629714966,0.13168109953403473
1679068267825498400,20.626498291015626,9.694122314453125,-0.019153613597154617,0.12689268589019775
1679068267845517300,20.646517333984374,9.684545516967773,-0.014365210197865963,0.1173158809542656
1679068267865475300,20.666475341796875,9.701305389404297,-0.043095629662275314,0.1412578970193863
1679068267885495300,20.686495361328124,9.684545516967773,0.002394201699644327,0.12689268589019775
1679068267905514500,20.706514404296875,9.677363395690918,-0.031124621629714966,0.12449848651885986
1679068267925473500,20.7264736328125,9.679757118225098,0.004788403399288654,0.14365209639072418
1679068267945492500,20.746492431640625,9.6989107131958,-0.023942016065120697,0.12928688526153564
1679068267965512400,20.766512451171874,9.701305389404297,-0.016759412363171577,0.1412578970193863
1679068267985470500,20.786470458984375,9.679757118225098,-0.0071826050989329815,0.12210428714752197
1679068268005490400,20.806490478515624,9.684545516967773,-0.035913024097681046,0.12689268589019775
1679068268026486500,20.827486572265624,9.715670585632324,-0.023942016065120697,0.10773907601833344
1679068268046505500,20.84750537109375,9.684545516967773,-0.0071826050989329815,0.13407529890537262
1679068268066464500,20.867464599609374,9.715670585632324,-0.021547814831137657,0.1149216815829277
1679068268086483500,20.8874833984375,9.682151794433594,-0.040701430290937424,0.11971008777618408
1679068268106503400,20.90750341796875,9.684545516967773,0,0.1364694982767105
1679068268126461400,20.92746142578125,9.708487510681152,-0.002394201699644327,0.1412578970193863
1679068268146481400,20.9474814453125,9.674968719482422,-0.021547814831137657,0.1364694982767105
1679068268166500400,20.967500244140624,9.68933391571045,-0.047884032130241394,0.1364694982767105
1679068268186461400,20.98746142578125,9.670180320739746,0.0071826050989329815,0.1364694982767105
1679068268207518500,21.0085185546875,9.703699111938477,-0.026336219161748886,0.12210428714752197
1679068268227477500,21.0284775390625,9.682151794433594,-0.016759412363171577,0.12449848651885986
1679068268247496400,21.048496337890626,9.691728591918945,-0.023942016065120697,0.12449848651885986
1679068268267455500,21.06845556640625,9.670180320739746,-0.004788403399288654,0.12928688526153564
1679068268288512500,21.089512451171874,9.696516990661621,-0.035913024097681046,0.1173158809542656
1679068268309508400,21.11050830078125,9.6989107131958,-0.0071826050989329815,0.15322890877723694
1679068268329466400,21.13046630859375,9.691728591918945,-0.026336219161748886,0.13168109953403473
1679068268349486300,21.150486328125,9.708487510681152,-0.014365210197865963,0.12210428714752197
1679068268369505500,21.170505615234376,9.674968719482422,-0.028730420395731926,0.1412578970193863
1679068268389464300,21.19046435546875,9.720458984375,-0.019153613597154617,0.1149216815829277
1679068268409483500,21.2104833984375,9.66539192199707,-0.004788403399288654,0.12210428714752197
1679068268429502500,21.23050244140625,9.734824180603027,-0.023942016065120697,0.1149216815829277
1679068268449461500,21.25046142578125,9.66299819946289,0.002394201699644327,0.12689268589019775
1679068268469480400,21.27048046875,9.72285270690918,-0.0071826050989329815,0.13407529890537262
1679068268489439500,21.290439453125,9.706093788146973,0.002394201699644327,0.14604631066322327
1679068268509519400,21.310519287109376,9.646238327026367,-0.002394201699644327,0.13168109953403473
1679068268529478400,21.330478515625,9.739612579345703,-0.016759412363171577,0.11971008777618408
1679068268549497300,21.350497314453126,9.66299819946289,0.0071826050989329815,0.14365209639072418
1679068268569456400,21.370456298828124,9.72285270690918,-0.014365210197865963,0.12449848651885986
1679068268589475300,21.390475341796876,9.694122314453125,-0.011971008032560349,0.13407529890537262
1679068268609495300,21.410495361328124,9.66539192199707,-0.016759412363171577,0.1173158809542656
1679068268629514500,21.430514404296876,9.734824180603027,0.002394201699644327,0.14604631066322327
1679068268649473500,21.4504736328125,9.643844604492188,-0.0454898327589035,0.13168109953403473
1679068268669492500,21.470492431640626,9.6989107131958,-0.035913024097681046,0.13168109953403473
1679068268691465500,21.492465576171874,9.706093788146973,-0.043095629662275314,0.13168109953403473
1679068268713498400,21.514498291015624,9.674968719482422,0,0.1388636976480484
1679068268735471400,21.536471435546876,9.66299819946289,-0.014365210197865963,0.11252748221158981
1679068268756467500,21.557467529296876,9.765948295593262,-0.026336219161748886,0.15562310814857483
1679068268776486400,21.577486328125,9.682151794433594,0.009576806798577309,0.14604631066322327
1679068268796506400,21.59750634765625,9.670180320739746,-0.0071826050989329815,0.1149216815829277
1679068268817502500,21.61850244140625,9.730035781860352,-0.002394201699644327,0.1412578970193863
1679068268838498300,21.639498291015624,9.672574996948242,-0.004788403399288654,0.12210428714752197
1679068268860471300,21.66147119140625,9.715670585632324,-0.014365210197865963,0.12449848651885986
1679068268880490500,21.681490478515624,9.725247383117676,-0.019153613597154617,0.14365209639072418
1679068268900510500,21.701510498046876,9.713275909423828,-0.040701430290937424,0.15562310814857483
1679068268920468500,21.721468505859374,9.715670585632324,-0.009576806798577309,0.1364694982767105
1679068268941464300,21.74246435546875,9.6989107131958,-0.019153613597154617,0.12449848651885986
1679068268961484500,21.762484619140626,9.6989107131958,-0.021547814831137657,0.12449848651885986
1679068268982480400,21.78348046875,9.739612579345703,-0.019153613597154617,0.12689268589019775
1679068269002499300,21.803499267578125,9.679757118225098,0.014365210197865963,0.1364694982767105
1679068269022519300,21.823519287109374,9.694122314453125,-0.038307227194309235,0.1388636976480484
1679068269042416400,21.84341650390625,9.708487510681152,-0.016759412363171577,0.10055647045373917
1679068269063412500,21.86441259765625,9.718064308166504,-0.028730420395731926,0.12689268589019775
1679068269083492400,21.884492431640624,9.713275909423828,-0.05267243832349777,0.1364694982767105
1679068269103451400,21.904451416015625,9.706093788146973,-0.031124621629714966,0.1364694982767105
1679068269124508400,21.92550830078125,9.682151794433594,-0.021547814831137657,0.13407529890537262
1679068269144466400,21.945466552734374,9.691728591918945,-0.009576806798577309,0.1388636976480484
1679068269164486400,21.965486328125,9.706093788146973,-0.038307227194309235,0.12449848651885986
1679068269184508400,21.98550830078125,9.68694019317627,0.0071826050989329815,0.14844051003456116
1679068269204466400,22.005466552734376,9.68933391571045,-0.038307227194309235,0.13407529890537262
1679068269224486400,22.025486328125,9.720458984375,-0.016759412363171577,0.1364694982767105
1679068269244505300,22.04550537109375,9.68694019317627,-0.031124621629714966,0.11013327538967133
1679068269264464400,22.06546435546875,9.737217903137207,-0.035913024097681046,0.13407529890537262
1679068269284239400,22.0852392578125,9.696516990661621,-0.0454898327589035,0.1388636976480484
1679068269304503300,22.10550341796875,9.718064308166504,-0.023942016065120697,0.12928688526153564
1679068269324461300,22.12546142578125,9.706093788146973,-0.021547814831137657,0.13407529890537262
1679068269344481500,22.1454814453125,9.746794700622559,0.004788403399288654,0.15801730751991272
1679068269365477400,22.166477294921876,9.6989107131958,-0.019153613597154617,0.12210428714752197
1679068269385496300,22.186496337890624,9.684545516967773,-0.033518824726343155,0.1364694982767105
1679068269406492400,22.207492431640624,9.739612579345703,-0.047884032130241394,0.1364694982767105
1679068269426512400,22.227512451171876,9.672574996948242,-0.014365210197865963,0.1412578970193863
1679068269446470400,22.247470458984374,9.739612579345703,-0.009576806798577309,0.12210428714752197
1679068269466429400,22.267429443359376,9.674968719482422,-0.0071826050989329815,0.1604115068912506
1679068269486509300,22.28750927734375,9.715670585632324,-0.019153613597154617,0.1364694982767105
1679068269507505400,22.30850537109375,9.708487510681152,-0.047884032130241394,0.15801730751991272
1679068269527464400,22.32846435546875,9.732429504394531,0.014365210197865963,0.13168109953403473
1679068269547483400,22.3484833984375,9.708487510681152,0.0071826050989329815,0.14365209639072418
1679068269568479500,22.3694794921875,9.720458984375,-0.019153613597154617,0.13407529890537262
1679068269590513400,22.391513427734374,9.718064308166504,-0.040701430290937424,0.1173158809542656
1679068269610471400,22.411471435546876,9.66299819946289,-0.014365210197865963,0.13407529890537262
1679068269631467500,22.432467529296876,9.720458984375,-0.038307227194309235,0.1149216815829277
1679068269651487500,22.452487548828124,9.715670585632324,-0.047884032130241394,0.12689268589019775
1679068269671445500,22.472445556640626,9.713275909423828,-0.0454898327589035,0.1412578970193863
1679068269691465500,22.492465576171874,9.703699111938477,-0.009576806798577309,0.12928688526153564
1679068269712461300,22.51346142578125,9.677363395690918,-0.026336219161748886,0.13168109953403473
1679068269734494500,22.535494384765624,9.706093788146973,-0.026336219161748886,0.1388636976480484
1679068269754514400,22.555514404296876,9.72285270690918,-0.040701430290937424,0.13407529890537262
1679068269775510500,22.576510498046876,9.658209800720215,-0.023942016065120697,0.1364694982767105
1679068269795468500,22.596468505859374,9.730035781860352,-0.014365210197865963,0.13407529890537262
1679068269815488500,22.616488525390626,9.696516990661621,-0.035913024097681046,0.12449848651885986
1679068269835507500,22.636507568359374,9.715670585632324,-0.047884032130241394,0.15322890877723694
1679068269855466500,22.656466552734376,9.68933391571045,-0.038307227194309235,0.12928688526153564
1679068269875485400,22.6764853515625,9.725247383117676,-0.047884032130241394,0.14365209639072418
1679068269895505400,22.69650537109375,9.708487510681152,-0.009576806798577309,0.12928688526153564
1679068269915463400,22.71646337890625,9.6989107131958,-0.031124621629714966,0.1364694982767105
1679068269935422500,22.73642236328125,9.734824180603027,-0.033518824726343155,0.1388636976480484
1679068269955502300,22.75650244140625,9.703699111938477,-0.047884032130241394,0.12928688526153564
1679068269976498400,22.77749853515625,9.703699111938477,-0.047884032130241394,0.14365209639072418
1679068269997494500,22.79849462890625,9.691728591918945,-0.047884032130241394,0.12689268589019775
1679068270018490400,22.819490478515625,9.68694019317627,-0.021547814831137657,0.1173158809542656
1679068270038510300,22.83951025390625,9.701305389404297,-0.028730420395731926,0.12928688526153564
1679068270059506400,22.86050634765625,9.696516990661621,-0.016759412363171577,0.1388636976480484
1679068270079281400,22.880281494140625,9.677363395690918,-0.028730420395731926,0.1388636976480484
1679068270099484400,22.900484375,9.715670585632324,-0.040701430290937424,0.13407529890537262
1679068270119503400,22.92050341796875,9.706093788146973,-0.047884032130241394,0.13407529890537262
1679068270139278300,22.9402783203125,9.684545516967773,-0.028730420395731926,0.12928688526153564
1679068270160519400,22.96151953125,9.6989107131958,-0.021547814831137657,0.1364694982767105
1679068270180480500,22.98148046875,9.68933391571045,-0.040701430290937424,0.13407529890537262
1679068270200499500,23.00149951171875,9.682151794433594,-0.019153613597154617,0.1412578970193863
1679068270221434400,23.022434326171876,9.682151794433594,-0.016759412363171577,0.1412578970193863
1679068270241515500,23.042515625,9.708487510681152,-0.043095629662275314,0.1412578970193863
1679068270262511400,23.063511474609374,9.703699111938477,-0.009576806798577309,0.11971008777618408
1679068270282469400,23.083469482421876,9.667786598205566,-0.014365210197865963,0.12210428714752197
1679068270303465500,23.104465576171876,9.708487510681152,-0.047884032130241394,0.12928688526153564
1679068270323485400,23.1244853515625,9.667786598205566,-0.028730420395731926,0.13407529890537262
1679068270343504400,23.14450439453125,9.696516990661621,-0.033518824726343155,0.1364694982767105
1679068270363463400,23.16446337890625,9.679757118225098,-0.033518824726343155,0.11971008777618408
1679068270383482400,23.184482421875,9.684545516967773,-0.043095629662275314,0.14604631066322327
1679068270403502300,23.20450244140625,9.6989107131958,-0.011971008032560349,0.1173158809542656
1679068270423521500,23.224521484375,9.682151794433594,0,0.14604631066322327
1679068270443479300,23.244479248046876,9.715670585632324,-0.05027823522686958,0.14365209639072418
1679068270463499500,23.26449951171875,9.706093788146973,-0.026336219161748886,0.13168109953403473
1679068270483518500,23.2845185546875,9.68933391571045,-0.043095629662275314,0.14604631066322327
1679068270503477500,23.3044775390625,9.720458984375,-0.028730420395731926,0.10534487664699554
1679068270523496400,23.324496337890626,9.679757118225098,-0.002394201699644327,0.11971008777618408
1679068270543516400,23.344516357421874,9.720458984375,-0.043095629662275314,0.14604631066322327
1679068270563413500,23.36441357421875,9.672574996948242,0.009576806798577309,0.12689268589019775
1679068270583494400,23.384494384765624,9.720458984375,-0.004788403399288654,0.14365209639072418
1679068270603513300,23.404513427734376,9.682151794433594,-0.016759412363171577,0.11013327538967133
1679068270623472400,23.424472412109374,9.701305389404297,-0.033518824726343155,0.12928688526153564
1679068270644468500,23.445468505859374,9.684545516967773,-0.026336219161748886,0.1173158809542656
1679068270664487400,23.4654873046875,9.703699111938477,-0.0454898327589035,0.13407529890537262
1679068270684507400,23.48550732421875,9.715670585632324,-0.043095629662275314,0.14365209639072418
1679068270704465400,23.50546533203125,9.703699111938477,-0.016759412363171577,0.1173158809542656
1679068270724485400,23.5254853515625,9.703699111938477,-0.031124621629714966,0.14844051003456116
1679068270744504300,23.54550439453125,9.706093788146973,-0.043095629662275314,0.13168109953403473
1679068270765500400,23.56650048828125,9.691728591918945,-0.019153613597154617,0.13407529890537262
1679068270787473400,23.588473388671876,9.708487510681152,-0.047884032130241394,0.15083470940589905
1679068270807492400,23.608492431640624,9.684545516967773,-0.011971008032560349,0.1388636976480484
1679068270827512300,23.62851220703125,9.708487510681152,-0.035913024097681046,0.13168109953403473
1679068270847409400,23.648409423828124,9.677363395690918,0.002394201699644327,0.12928688526153564
1679068270868405500,23.669405517578124,9.696516990661621,-0.026336219161748886,0.1173158809542656
1679068270888486400,23.689486328125,9.684545516967773,-0.019153613597154617,0.12928688526153564
1679068270908444400,23.7094443359375,9.691728591918945,-0.043095629662275314,0.13407529890537262
1679068270928464400,23.72946435546875,9.703699111938477,-0.021547814831137657,0.1388636976480484
1679068270948483300,23.7494833984375,9.677363395690918,-0.019153613597154617,0.12928688526153564
1679068270969151200,23.770151123046876,9.6989107131958,-0.038307227194309235,0.12928688526153564
1679068270988868600,23.78986865234375,9.677363395690918,-0.035913024097681046,0.1364694982767105
1679068271008875500,23.80987548828125,9.715670585632324,-0.035913024097681046,0.13407529890537262
1679068271028700700,23.82970068359375,9.682151794433594,0.0071826050989329815,0.14365209639072418
1679068271048720000,23.849719970703124,9.68694019317627,-0.014365210197865963,0.13407529890537262
1679068271069715700,23.8707158203125,9.670180320739746,-0.033518824726343155,0.13168109953403473
1679068271090712800,23.891712890625,9.691728591918945,-0.002394201699644327,0.14844051003456116
1679068271110670800,23.9116708984375,9.674968719482422,-0.026336219161748886,0.12210428714752197
1679068271131602200,23.932602294921875,9.703699111938477,-0.023942016065120697,0.1364694982767105
1679068271151621000,23.95262109375,9.667786598205566,-0.026336219161748886,0.1364694982767105
1679068271171580200,23.972580078125,9.6989107131958,-0.040701430290937424,0.11971008777618408
1679068271191602200,23.992602294921873,9.694122314453125,0.002394201699644327,0.14844051003456116
1679068271211621000,24.01262109375,9.696516990661621,-0.023942016065120697,0.13168109953403473
1679068271232617200,24.0336171875,9.696516990661621,-0.028730420395731926,0.1173158809542656
1679068271252637200,24.05363720703125,9.670180320739746,0.002394201699644327,0.13168109953403473
1679068271273633000,24.074633056640625,9.701305389404297,-0.043095629662275314,0.11971008777618408
1679068271293652200,24.09465234375,9.6989107131958,-0.019153613597154617,0.12210428714752197
1679068271313611000,24.114611083984375,9.674968719482422,-0.011971008032560349,0.1388636976480484
1679068271333630200,24.134630126953127,9.691728591918945,-0.047884032130241394,0.15562310814857483
1679068271353650200,24.154650146484375,9.682151794433594,-0.0071826050989329815,0.13168109953403473
1679068271373608200,24.174608154296877,9.68694019317627,-0.038307227194309235,0.12210428714752197
1679068271393567200,24.194567138671875,9.682151794433594,0.009576806798577309,0.15083470940589905
1679068271413586200,24.214586181640627,9.674968719482422,-0.004788403399288654,0.11971008777618408
1679068271434643200,24.235643310546877,9.703699111938477,-0.040701430290937424,0.1412578970193863
1679068271454602200,24.255602294921875,9.684545516967773,-0.026336219161748886,0.12928688526153564
1679068271474621200,24.27562109375,9.691728591918945,-0.028730420395731926,0.12449848651885986
1679068271494641200,24.29564111328125,9.696516990661621,-0.004788403399288654,0.13407529890537262
1679068271514599200,24.31559912109375,9.684545516967773,-0.016759412363171577,0.12689268589019775
1679068271534619100,24.335619140625,9.679757118225098,-0.021547814831137657,0.13168109953403473
1679068271554638000,24.35563818359375,9.682151794433594,-0.0071826050989329815,0.13168109953403473
1679068271574658000,24.375657958984377,9.68933391571045,-0.011971008032560349,0.13168109953403473
1679068271594616000,24.395615966796875,9.684545516967773,-0.047884032130241394,0.1388636976480484
1679068271614636000,24.415635986328127,9.68694019317627,-0.035913024097681046,0.12689268589019775
1679068271634655200,24.4356552734375,9.670180320739746,0.002394201699644327,0.14844051003456116
1679068271655651000,24.456651123046875,9.684545516967773,-0.023942016065120697,0.1173158809542656
1679068271675610000,24.476610107421877,9.6989107131958,-0.031124621629714966,0.12449848651885986
1679068271695629000,24.496629150390625,9.682151794433594,-0.009576806798577309,0.12928688526153564
1679068271715608800,24.51660888671875,9.708487510681152,-0.026336219161748886,0.1364694982767105
1679068271735543600,24.53654345703125,9.691728591918945,-0.011971008032560349,0.12449848651885986
1679068271755562500,24.5565625,9.667786598205566,-0.002394201699644327,0.1388636976480484
1679068271775582500,24.57658251953125,9.6989107131958,-0.047884032130241394,0.14604631066322327
1679068271795540500,24.59654052734375,9.684545516967773,-0.002394201699644327,0.14604631066322327
1679068271815560400,24.616560546875,9.6989107131958,-0.035913024097681046,0.13407529890537262
1679068271835579400,24.636579345703126,9.670180320739746,-0.004788403399288654,0.15083470940589905
1679068271855477500,24.6564775390625,9.706093788146973,-0.047884032130241394,0.13168109953403473
1679068271875557400,24.676557373046876,9.6989107131958,-0.011971008032560349,0.11252748221158981
1679068271895577600,24.69657763671875,9.677363395690918,-0.040701430290937424,0.12928688526153564
1679068271915535600,24.71653564453125,9.706093788146973,-0.0454898327589035,0.13168109953403473
1679068271936592400,24.73759228515625,9.684545516967773,0,0.15083470940589905
1679068271956551400,24.757551513671874,9.6989107131958,-0.043095629662275314,0.15083470940589905
1679068271976570600,24.777570556640626,9.691728591918945,0.002394201699644327,0.1412578970193863
1679068271996590600,24.797590576171874,9.674968719482422,-0.021547814831137657,0.13407529890537262
1679068272017586400,24.81858642578125,9.691728591918945,-0.023942016065120697,0.12449848651885986
1679068272038582500,24.83958251953125,9.703699111938477,-0.038307227194309235,0.1149216815829277
1679068272058540500,24.85954052734375,9.667786598205566,-0.009576806798577309,0.13407529890537262
1679068272078560500,24.879560546875,9.696516990661621,-0.021547814831137657,0.11971008777618408
1679068272098579500,24.899579345703124,9.684545516967773,-0.019153613597154617,0.12210428714752197
1679068272118538500,24.91953857421875,9.670180320739746,-0.028730420395731926,0.11971008777618408
1679068272139534600,24.94053466796875,9.682151794433594,-0.009576806798577309,0.12210428714752197
1679068272160591600,24.961591552734376,9.691728591918945,-0.040701430290937424,0.13168109953403473
1679068272181589500,24.982589599609376,9.677363395690918,-0.011971008032560349,0.1388636976480484
1679068272201548500,25.002548583984375,9.677363395690918,-0.009576806798577309,0.11252748221158981
1679068272222544400,25.02354443359375,9.703699111938477,-0.0454898327589035,0.13168109953403473
1679068272242563600,25.0435634765625,9.684545516967773,-0.016759412363171577,0.11971008777618408
1679068272262583600,25.06358349609375,9.691728591918945,-0.004788403399288654,0.15083470940589905
1679068272282541600,25.08354150390625,9.696516990661621,-0.033518824726343155,0.12689268589019775
1679068272302561500,25.1035615234375,9.667786598205566,0.011971008032560349,0.14604631066322327
1679068272323557400,25.124557373046876,9.674968719482422,0,0.13168109953403473
1679068272344553500,25.145553466796876,9.684545516967773,-0.026336219161748886,0.12210428714752197
1679068272365549600,25.166549560546876,9.667786598205566,0.002394201699644327,0.13407529890537262
1679068272386545400,25.18754541015625,9.684545516967773,-0.026336219161748886,0.11971008777618408
1679068272406564600,25.207564697265624,9.694122314453125,-0.0071826050989329815,0.13168109953403473
1679068272426584600,25.22758447265625,9.660603523254395,0.0071826050989329815,0.12928688526153564
1679068272446542600,25.24754248046875,9.68694019317627,-0.040701430290937424,0.13168109953403473
1679068272466379500,25.267379638671876,9.677363395690918,-0.004788403399288654,0.13407529890537262
1679068272486520600,25.2875205078125,9.696516990661621,-0.0454898327589035,0.12928688526153564
1679068272507577600,25.30857763671875,9.68694019317627,-0.009576806798577309,0.1388636976480484
